Time (s),Gyroscope X (deg/s),Gyroscope Y (deg/s),Gyroscope Z (deg/s),Accelerometer X (g),Accelerometer Y (g),Accelerometer X (g)
0,-0.2290,0.1756,0.0305,0.099349,-0.006592,0.09934856014271151
0.002509,-0.2290,0.1298,0.0611,0.100145,-0.001709,0.10014494138634046
0.005018,-0.2443,0.1679,0.0458,0.099423,-0.006592,0.09942322088430172
0.007527,-0.2137,0.1603,0.0534,0.100269,-0.000244,0.10026937595565749
0.010036,-0.2061,0.1527,0.0382,0.099597,-0.003174,0.09959742928134556
0.012545,-0.2214,0.1756,0.0611,0.099996,-0.006348,0.09999561990316004
0.015054,-0.2443,0.1679,0.0687,0.100269,-0.009521,0.10026937595565749
0.017563,-0.2137,0.1603,0.0382,0.098950,-0.011719,0.09895036952089704
0.020072,-0.2061,0.1603,0.0763,0.099423,-0.010254,0.09942322088430172
0.022581,-0.2290,0.1603,0.0229,0.100170,-0.017334,0.10016982830020386
0.02509,-0.2443,0.1527,0.0382,0.098925,-0.018066,0.09892548260703364
0.027599,-0.2214,0.1450,0.0611,0.099921,-0.017090,0.09992095916156982
0.030108,-0.2519,0.1603,0.0534,0.099349,-0.021484,0.09934856014271151
0.032617,-0.2366,0.1603,0.0611,0.100220,-0.016602,0.10021960212793068
0.035126,-0.2290,0.1679,0.0534,0.098851,-0.020752,0.09885082186544342
0.037635,-0.1985,0.1450,0.0611,0.099324,-0.012207,0.09932367322884811
0.040144,-0.2137,0.1450,0.0458,0.099921,-0.013428,0.09992095916156982
0.042653,-0.2366,0.1374,0.0611,0.099398,-0.010010,0.09939833397043832
0.045162,-0.2137,0.1603,0.0458,0.099448,-0.002441,0.09944810779816514
0.047671,-0.1985,0.1450,0.0534,0.100742,-0.004883,0.10074222731906218
0.05018,-0.2061,0.1832,0.0611,0.099224,-0.004395,0.0992241255733945
0.052689,-0.2290,0.1832,0.0534,0.099548,-0.005371,0.09954765545361875
0.055198,-0.2061,0.1527,0.0611,0.099971,-0.008301,0.09997073298929664
0.057707,-0.2443,0.1679,0.0611,0.098602,-0.006836,0.09860195272680937
0.060216,-0.2214,0.1450,0.0305,0.098229,-0.005371,0.0982286490188583
0.062725,-0.2290,0.1527,0.0458,0.101315,-0.014893,0.10131462633792049
0.065234,-0.2137,0.1374,0.0382,0.099174,0.002441,0.09917435174566767
0.067743,-0.2443,0.1756,0.0611,0.099697,0.004639,0.09969697693679917
0.070252,-0.2137,0.1832,0.0611,0.098179,-0.001221,0.0981788751911315
0.072761,-0.2061,0.1298,0.0611,0.098577,-0.002930,0.09857706581294597
0.07527,-0.2214,0.1527,0.0229,0.098975,-0.007324,0.09897525643476045
0.077779,-0.2443,0.1756,0.0458,0.100244,-0.009277,0.10024448904179409
0.080288,-0.2214,0.1603,0.0382,0.099548,-0.015625,0.09954765545361875
0.082797,-0.2061,0.1756,0.0458,0.099149,-0.010010,0.09914946483180427
0.085306,-0.2519,0.1603,0.0687,0.099597,-0.011719,0.09959742928134556
0.087815,-0.2137,0.1603,0.0305,0.099523,-0.007812,0.09952276853975535
0.090324,-0.2137,0.1450,0.0382,0.099324,-0.003418,0.09932367322884811
0.092833,-0.2214,0.1374,0.0458,0.099249,-0.017334,0.0992490124872579
0.095342,-0.2290,0.1527,0.0534,0.100444,-0.016846,0.10044358435270132
0.097851,-0.2366,0.1603,0.0382,0.097706,-0.028564,0.0977060238277268
0.10036,-0.2214,0.1603,0.0458,0.100543,-0.018311,0.10054313200815494
0.102869,-0.2290,0.1221,0.0458,0.100269,-0.009766,0.10026937595565749
0.105378,-0.2061,0.1450,0.0611,0.099398,-0.006104,0.09939833397043832
0.107887,-0.2137,0.1527,0.0534,0.098776,-0.013916,0.0987761611238532
0.110396,-0.2290,0.1603,0.0840,0.099846,0.000000,0.0998462984199796
0.112905,-0.2137,0.1221,0.0382,0.100021,-0.001953,0.10002050681702344
0.115414,-0.2443,0.1527,0.0534,0.098801,-0.005615,0.09880104803771661
0.117923,-0.2290,0.1603,0.0458,0.099324,-0.006104,0.09932367322884811
0.120432,-0.2366,0.1603,0.0382,0.099075,-0.006348,0.09907480409021406
0.122941,-0.2366,0.1450,0.0305,0.100244,0.000244,0.10024448904179409
0.12545,-0.2137,0.1450,0.0458,0.099697,0.002930,0.09969697693679917
0.127959,-0.2137,0.1527,0.0611,0.099274,-0.000488,0.0992738994011213
0.130468,-0.2366,0.1527,0.0458,0.100742,-0.002197,0.10074222731906218
0.132977,-0.2290,0.1679,0.0382,0.099025,-0.004883,0.09902503026248725
0.135486,-0.2137,0.1832,0.0687,0.099722,-0.003418,0.09972186385066259
0.137995,-0.2366,0.1450,0.0458,0.099672,-0.007324,0.09967209002293577
0.140504,-0.1985,0.1679,0.0611,0.099846,-0.008789,0.0998462984199796
0.143013,-0.2214,0.1603,0.0458,0.099149,-0.010498,0.09914946483180427
0.145522,-0.2137,0.1450,0.0458,0.099821,-0.011963,0.0998214115061162
0.148031,-0.2443,0.1527,0.0611,0.100195,-0.012939,0.10019471521406727
0.15054,-0.2214,0.1450,0.0611,0.097656,-0.010010,0.09765625
0.153049,-0.2137,0.1679,0.0534,0.100294,-0.011963,0.1002942628695209
0.155558,-0.2137,0.1603,0.0458,0.100294,-0.012451,0.1002942628695209
0.158067,-0.2214,0.1603,0.0458,0.098702,-0.018555,0.098701500382263
0.160576,-0.2137,0.1603,0.0534,0.099025,-0.016113,0.09902503026248725
0.163085,-0.2290,0.1527,0.0611,0.101414,-0.006348,0.1014141739933741
0.165594,-0.2214,0.1756,0.0229,0.098478,-0.009521,0.09847751815749235
0.168103,-0.2061,0.1450,0.0763,0.098901,-0.008789,0.09890059569317022
0.170612,-0.2214,0.1450,0.0458,0.099946,-0.004150,0.09994584607543322
0.173121,-0.2290,0.1679,0.0534,0.099448,-0.009521,0.09944810779816514
0.17563,-0.2366,0.1679,0.0687,0.099125,-0.005615,0.09912457791794087
0.178139,-0.2214,0.1527,0.0534,0.099249,-0.006836,0.0992490124872579
0.180648,-0.2290,0.1603,0.0305,0.098876,-0.012695,0.09887570877930682
0.183157,-0.2290,0.1527,0.0305,0.099772,0.004150,0.0997716376783894
0.185666,-0.2290,0.1679,0.0534,0.098627,-0.010986,0.09862683964067277
0.188175,-0.2290,0.1603,0.0458,0.099249,-0.008301,0.0992490124872579
0.190684,-0.2214,0.1450,0.0611,0.099672,-0.001709,0.09967209002293577
0.193193,-0.2366,0.1603,0.0458,0.099100,-0.000488,0.09909969100407746
0.195702,-0.2214,0.1679,0.0611,0.099797,0.000732,0.0997965245922528
0.198211,-0.2366,0.1679,0.0534,0.099025,-0.006104,0.09902503026248725
0.20072,-0.2061,0.1450,0.0534,0.099597,-0.007080,0.09959742928134556
0.203229,-0.2290,0.1679,0.0534,0.100692,-0.010986,0.10069245349133536
0.205738,-0.2137,0.1450,0.0458,0.097706,-0.003662,0.0977060238277268
0.208247,-0.2519,0.1603,0.0611,0.099846,0.014404,0.0998462984199796
0.210756,-0.2443,0.1527,0.0153,0.099523,-0.007568,0.09952276853975535
0.213265,-0.2137,0.1756,0.0611,0.099846,-0.006348,0.0998462984199796
0.215774,-0.2214,0.1450,0.0458,0.099000,-0.016113,0.09900014334862385
0.218283,-0.2443,0.1527,0.0382,0.099946,-0.020996,0.09994584607543322
0.220792,-0.2366,0.1450,0.0458,0.099299,-0.025391,0.0992987863149847
0.223301,-0.2137,0.1679,0.0687,0.098478,-0.018555,0.09847751815749235
0.22581,-0.2443,0.1450,0.0458,0.099622,-0.020508,0.09962231619520896
0.228319,-0.2214,0.1450,0.0458,0.099224,-0.011230,0.0992241255733945
0.230828,-0.1908,0.1145,0.0763,0.100095,-0.010498,0.10009516755861365
0.233337,-0.2366,0.1603,0.0534,0.099149,-0.007324,0.09914946483180427
0.235846,-0.2366,0.1450,0.0458,0.097283,-0.007568,0.09728294629204892
0.238355,-0.2214,0.1603,0.0382,0.099647,-0.008057,0.09964720310907237
0.240864,-0.2137,0.1374,0.0611,0.099050,-0.003662,0.09904991717635066
0.243373,-0.2366,0.1374,0.0611,0.099597,-0.011475,0.09959742928134556
0.245882,-0.2290,0.1450,0.0534,0.099125,-0.007324,0.09912457791794087
0.248391,-0.2443,0.1756,0.0611,0.099622,-0.002197,0.09962231619520896
0.2509,-0.2137,0.1527,0.0611,0.100070,-0.006592,0.10007028064475025
0.253409,-0.2290,0.1527,0.0305,0.101514,-0.005615,0.10151372164882771
0.255918,-0.2137,0.1603,0.0382,0.099075,-0.005615,0.09907480409021406
0.258427,-0.2214,0.1603,0.0611,0.098602,0.000488,0.09860195272680937
0.260936,-0.2290,0.1756,0.0611,0.099772,-0.008057,0.0997716376783894
0.263445,-0.2137,0.1603,0.0458,0.099274,-0.007812,0.0992738994011213
0.265954,-0.2214,0.1527,0.0534,0.100070,-0.000244,0.10007028064475025
0.268463,-0.2443,0.1603,0.0534,0.099448,-0.014648,0.09944810779816514
0.270972,-0.2214,0.1603,0.0458,0.098851,-0.023926,0.09885082186544342
0.273481,-0.2443,0.1527,0.0534,0.098950,-0.008301,0.09895036952089704
0.27599,-0.2061,0.1603,0.0458,0.099498,-0.005859,0.09949788162589195
0.278499,-0.2290,0.1450,0.0611,0.099971,-0.013428,0.09997073298929664
0.281008,-0.1985,0.1756,0.0458,0.099324,-0.000488,0.09932367322884811
0.283517,-0.2519,0.1679,0.0687,0.098677,-0.022705,0.0986766134683996
0.286026,-0.2366,0.1450,0.0687,0.098776,-0.018311,0.0987761611238532
0.288535,-0.2137,0.1298,0.0305,0.099548,-0.021240,0.09954765545361875
0.291044,-0.2137,0.1603,0.0763,0.099772,-0.015137,0.0997716376783894
0.293553,-0.2366,0.1679,0.0534,0.099299,-0.008057,0.0992987863149847
0.296062,-0.2214,0.1527,0.0305,0.098925,-0.000977,0.09892548260703364
0.298571,-0.2290,0.1679,0.0534,0.098975,-0.009766,0.09897525643476045
0.30108,-0.2137,0.1374,0.0534,0.099174,-0.007812,0.09917435174566767
0.303589,-0.2214,0.1527,0.0611,0.099747,-0.010986,0.099746750764526
0.306098,-0.2366,0.1527,0.0458,0.099274,-0.008301,0.0992738994011213
0.308607,-0.2137,0.1527,0.0458,0.099971,-0.003174,0.09997073298929664
0.311116,-0.2137,0.1298,0.0382,0.099772,0.001221,0.0997716376783894
0.313625,-0.2137,0.1603,0.0305,0.099149,-0.012695,0.09914946483180427
0.316134,-0.2061,0.1298,0.0534,0.098801,-0.005615,0.09880104803771661
0.318643,-0.2137,0.1908,0.0229,0.099896,-0.014404,0.09989607224770641
0.321152,-0.2366,0.1527,0.0458,0.099971,-0.003906,0.09997073298929664
0.323661,-0.2366,0.1527,0.0534,0.099100,-0.007812,0.09909969100407746
0.32617,-0.2214,0.1527,0.0458,0.099971,-0.003906,0.09997073298929664
0.328679,-0.2366,0.1756,0.0458,0.099249,-0.005371,0.0992490124872579
0.331188,-0.2366,0.1985,0.0305,0.099821,-0.002441,0.0998214115061162
0.333697,-0.2443,0.1832,0.0534,0.099597,-0.009033,0.09959742928134556
0.336206,-0.2214,0.1374,0.0458,0.101439,-0.010498,0.1014390609072375
0.338715,-0.2366,0.1450,0.0534,0.098005,-0.008057,0.09800466679408766
0.341224,-0.2214,0.1374,0.0382,0.099697,-0.013428,0.09969697693679917
0.343733,-0.2214,0.1756,0.0534,0.099971,-0.015625,0.09997073298929664
0.346242,-0.2137,0.1221,0.0840,0.100244,-0.021484,0.10024448904179409
0.348751,-0.2137,0.1145,0.0611,0.099797,-0.017090,0.0997965245922528
0.35126,-0.2290,0.1679,0.0611,0.099125,-0.018311,0.09912457791794087
0.353769,-0.2290,0.1374,0.0611,0.098851,-0.021973,0.09885082186544342
0.356278,-0.2137,0.1298,0.0458,0.100195,-0.004883,0.10019471521406727
0.358787,-0.1985,0.1603,0.0534,0.099821,-0.016113,0.0998214115061162
0.361296,-0.2061,0.1679,0.0305,0.097482,-0.010010,0.09748204160295616
0.363805,-0.1985,0.1450,0.0382,0.099274,-0.002686,0.0992738994011213
0.366314,-0.1985,0.1450,0.0611,0.098677,-0.000977,0.0986766134683996
0.368823,-0.2366,0.1679,0.0763,0.099622,-0.009766,0.09962231619520896
0.371332,-0.2290,0.1527,0.0305,0.099075,-0.006592,0.09907480409021406
0.373841,-0.2137,0.1832,0.0458,0.099597,-0.004883,0.09959742928134556
0.37635,-0.1985,0.1374,0.0611,0.098975,-0.011475,0.09897525643476045
0.378859,-0.2366,0.1603,0.0229,0.099224,-0.005859,0.0992241255733945
0.381368,-0.2061,0.1527,0.0534,0.099373,0.014160,0.09937344705657492
0.383877,-0.2137,0.1679,0.0534,0.099498,0.013184,0.09949788162589195
0.386386,-0.2137,0.1450,0.0305,0.099349,-0.000488,0.09934856014271151
0.388895,-0.1985,0.1298,0.0458,0.099498,-0.004883,0.09949788162589195
0.391404,-0.2290,0.1527,0.0305,0.099772,-0.008057,0.0997716376783894
0.393913,-0.2366,0.1756,0.0458,0.099647,0.004883,0.09964720310907237
0.396422,-0.2366,0.1450,0.0305,0.099100,-0.002686,0.09909969100407746
0.398931,-0.2290,0.1603,0.0382,0.100966,-0.010742,0.10096620954383281
0.40144,-0.2366,0.1603,0.0534,0.098627,-0.009521,0.09862683964067277
0.403949,-0.2290,0.1756,0.0611,0.099722,-0.013428,0.09972186385066259
0.406458,-0.2137,0.1756,0.0458,0.099821,-0.016357,0.0998214115061162
0.408967,-0.2290,0.1527,0.0687,0.099523,-0.017334,0.09952276853975535
0.411476,-0.2137,0.1679,0.0534,0.099498,-0.023926,0.09949788162589195
0.413985,-0.2214,0.1450,0.0229,0.100518,-0.015137,0.10051824509429154
0.416494,-0.2137,0.1603,0.0534,0.099772,-0.008789,0.0997716376783894
0.419003,-0.2061,0.1679,0.0382,0.099672,-0.012695,0.09967209002293577
0.421512,-0.2443,0.1756,0.0534,0.099174,-0.007324,0.09917435174566767
0.424021,-0.2366,0.1603,0.0305,0.100518,-0.001465,0.10051824509429154
0.42653,-0.2443,0.1450,0.0458,0.101340,-0.005371,0.10133951325178389
0.429039,-0.2290,0.1603,0.0458,0.100543,-0.008789,0.10054313200815494
0.431548,-0.2366,0.1527,0.0840,0.099622,-0.013672,0.09962231619520896
0.434057,-0.2290,0.1832,0.0611,0.099971,-0.010254,0.09997073298929664
0.436566,-0.2214,0.1450,0.0534,0.097756,-0.010742,0.09775579765545361
0.439075,-0.2214,0.1298,0.0382,0.099797,-0.005371,0.0997965245922528
0.441584,-0.2137,0.1756,0.0534,0.099324,-0.011963,0.09932367322884811
0.444093,-0.1985,0.1603,0.0458,0.098403,-0.005371,0.09840285741590214
0.446602,-0.2290,0.1527,0.0458,0.099647,-0.000732,0.09964720310907237
0.449111,-0.2061,0.1450,0.0458,0.099647,0.000000,0.09964720310907237
0.45162,-0.2366,0.1603,0.0611,0.097905,-0.001709,0.09790511913863405
0.454129,-0.2137,0.1527,0.0305,0.099324,-0.005371,0.09932367322884811
0.456638,-0.2290,0.1527,0.0534,0.099722,-0.007324,0.09972186385066259
0.459147,-0.2214,0.1527,0.0916,0.099747,-0.009277,0.099746750764526
0.461656,-0.2061,0.1603,0.0458,0.099199,-0.006836,0.09919923865953109
0.464165,-0.2137,0.1374,0.0458,0.099174,-0.003174,0.09917435174566767
0.466674,-0.2519,0.1374,0.0687,0.100021,-0.014893,0.10002050681702344
0.469183,-0.2290,0.1679,0.0611,0.099672,-0.015137,0.09967209002293577
0.471692,-0.2214,0.1756,0.0534,0.099324,-0.014893,0.09932367322884811
0.474201,-0.2061,0.1450,0.0687,0.099448,-0.021973,0.09944810779816514
0.47671,-0.2214,0.1832,0.0611,0.099647,-0.019043,0.09964720310907237
0.479219,-0.2366,0.1603,0.0382,0.099423,-0.008057,0.09942322088430172
0.481728,-0.2366,0.1374,0.0458,0.099921,-0.014648,0.09992095916156982
0.484237,-0.2290,0.1527,0.0382,0.099622,-0.018066,0.09962231619520896
0.486746,-0.2366,0.1756,0.0687,0.099224,-0.008301,0.0992241255733945
0.489255,-0.2443,0.1527,0.0458,0.099697,-0.005371,0.09969697693679917
0.491764,-0.2290,0.1374,0.0534,0.099423,-0.002441,0.09942322088430172
0.494273,-0.2366,0.1679,0.0305,0.099523,-0.011963,0.09952276853975535
0.496782,-0.2366,0.1679,0.0687,0.099797,-0.012695,0.0997965245922528
0.499291,-0.2595,0.1450,0.0534,0.100170,-0.009521,0.10016982830020386
0.5018,-0.2290,0.1603,0.0611,0.099996,-0.004395,0.09999561990316004
0.504309,-0.2290,0.1603,0.0458,0.099647,-0.007324,0.09964720310907237
0.506818,-0.2137,0.1603,0.0305,0.099249,-0.001953,0.0992490124872579
0.509327,-0.2443,0.1450,0.0534,0.100070,-0.001465,0.10007028064475025
0.511836,-0.2137,0.1603,0.0534,0.099722,-0.001465,0.09972186385066259
0.514345,-0.2137,0.1527,0.0458,0.099647,-0.013672,0.09964720310907237
0.516854,-0.2290,0.1527,0.0611,0.099647,-0.007812,0.09964720310907237
0.519363,-0.2366,0.1450,0.0458,0.099523,-0.002930,0.09952276853975535
0.521872,-0.2366,0.1450,0.0534,0.099373,-0.009033,0.09937344705657492
0.524381,-0.2443,0.1603,0.0534,0.098453,-0.005371,0.09845263124362895
0.52689,-0.2366,0.1221,0.0534,0.098577,-0.016113,0.09857706581294597
0.529399,-0.2214,0.1679,0.0534,0.099622,-0.015137,0.09962231619520896
0.531908,-0.2214,0.1603,0.0458,0.097482,-0.005615,0.09748204160295616
0.534417,-0.2290,0.1679,0.0763,0.099871,-0.016602,0.09987118533384301
0.536926,-0.2214,0.1527,0.0458,0.099423,-0.022217,0.09942322088430172
0.539435,-0.2214,0.1374,0.0458,0.099622,-0.016357,0.09962231619520896
0.541944,-0.2137,0.1450,0.0534,0.099398,-0.001709,0.09939833397043832
0.544453,-0.2137,0.1679,0.0458,0.099523,-0.030273,0.09952276853975535
0.546962,-0.2214,0.1374,0.0153,0.099597,-0.010254,0.09959742928134556
0.549471,-0.2214,0.1603,0.0382,0.099647,-0.003418,0.09964720310907237
0.55198,-0.2443,0.1450,0.0534,0.099473,-0.007812,0.09947299471202854
0.554489,-0.2443,0.1679,0.0458,0.100244,-0.010742,0.10024448904179409
0.556998,-0.2137,0.1374,0.0687,0.098453,-0.006592,0.09845263124362895
0.559507,-0.2214,0.1679,0.0763,0.099821,-0.002441,0.0998214115061162
0.562016,-0.2366,0.1603,0.0534,0.099573,-0.003662,0.09957254236748216
0.564525,-0.2290,0.1603,0.0458,0.100543,-0.003662,0.10054313200815494
0.567034,-0.2290,0.1527,0.0382,0.099573,-0.004639,0.09957254236748216
0.569543,-0.2061,0.1527,0.0382,0.099398,-0.002197,0.09939833397043832
0.572052,-0.2214,0.1527,0.0305,0.100145,-0.003418,0.10014494138634046
0.574561,-0.2290,0.1603,0.0458,0.099125,-0.004639,0.09912457791794087
0.57707,-0.2366,0.1679,0.0534,0.098726,-0.007812,0.0987263872961264
0.579579,-0.2366,0.1603,0.0305,0.099523,-0.004395,0.09952276853975535
0.582088,-0.2214,0.1679,0.0458,0.099025,-0.000488,0.09902503026248725
0.584597,-0.2290,0.1527,0.0611,0.099672,-0.029297,0.09967209002293577
0.587106,-0.2443,0.1756,0.0305,0.100120,-0.014893,0.10012005447247706
0.589615,-0.2214,0.1527,0.0382,0.099224,-0.010498,0.0992241255733945
0.592124,-0.2137,0.1527,0.0305,0.099000,-0.008545,0.09900014334862385
0.594633,-0.2214,0.1679,0.0458,0.098925,-0.013428,0.09892548260703364
0.597142,-0.2137,0.1374,0.0229,0.099448,-0.008789,0.09944810779816514
0.599651,-0.2137,0.1603,0.0840,0.099398,-0.011963,0.09939833397043832
0.60216,-0.2443,0.1756,0.0534,0.098901,-0.009766,0.09890059569317022
0.604669,-0.2290,0.1603,0.0687,0.099846,-0.015137,0.0998462984199796
0.607178,-0.2443,0.1450,0.0534,0.098925,-0.008789,0.09892548260703364
0.609687,-0.2290,0.1756,0.0305,0.100394,-0.011719,0.10039381052497451
0.612196,-0.2366,0.1603,0.0382,0.099523,-0.004395,0.09952276853975535
0.614705,-0.2366,0.1679,0.0611,0.099075,-0.009033,0.09907480409021406
0.617214,-0.2214,0.1603,0.0458,0.099199,0.000000,0.09919923865953109
0.619723,-0.2214,0.1679,0.0534,0.099473,-0.002441,0.09947299471202854
0.622232,-0.2366,0.1450,0.0611,0.099548,-0.013916,0.09954765545361875
0.624741,-0.2443,0.1679,0.0534,0.100394,-0.010742,0.10039381052497451
0.62725,-0.2061,0.1679,0.0382,0.100195,-0.011719,0.10019471521406727
0.629759,-0.2137,0.1374,0.0611,0.100021,-0.007324,0.10002050681702344
0.632268,-0.2366,0.1679,0.0305,0.100344,-0.009521,0.1003440366972477
0.634777,-0.2366,0.1527,0.0534,0.099075,-0.006836,0.09907480409021406
0.637286,-0.2214,0.1374,0.0687,0.099224,0.011719,0.0992241255733945
0.639795,-0.2061,0.1756,0.0382,0.099299,-0.003174,0.0992987863149847
0.642304,-0.2137,0.1832,0.0458,0.098453,-0.010986,0.09845263124362895
0.644813,-0.2290,0.1603,0.0305,0.099697,-0.004639,0.09969697693679917
0.647322,-0.2137,0.1298,0.0611,0.101688,-0.015137,0.10168793004587155
0.649831,-0.2366,0.1450,0.0305,0.099448,-0.006592,0.09944810779816514
0.65234,-0.2061,0.1832,0.0534,0.099647,-0.002686,0.09964720310907237
0.654849,-0.2366,0.1908,0.0534,0.099100,-0.009766,0.09909969100407746
0.657358,-0.2443,0.1374,0.0305,0.099996,-0.010498,0.09999561990316004
0.659867,-0.2214,0.1527,0.0687,0.099498,-0.010010,0.09949788162589195
0.662376,-0.2290,0.1832,0.0534,0.099149,-0.011719,0.09914946483180427
0.664885,-0.2214,0.1527,0.0382,0.100518,-0.009521,0.10051824509429154
0.667394,-0.2366,0.1756,0.0534,0.099373,-0.013428,0.09937344705657492
0.669903,-0.2519,0.1374,0.0763,0.099573,-0.012451,0.09957254236748216
0.672412,-0.2366,0.1527,0.0458,0.099797,-0.002686,0.0997965245922528
0.674921,-0.2061,0.1603,0.0458,0.099199,-0.020020,0.09919923865953109
0.67743,-0.2290,0.1832,0.0534,0.098826,-0.008789,0.09882593495158001
0.679939,-0.2137,0.1527,0.0534,0.101713,-0.009277,0.10171281695973496
0.682448,-0.2061,0.1603,0.0382,0.099498,-0.004395,0.09949788162589195
0.684957,-0.2290,0.1756,0.0687,0.100369,-0.004639,0.1003689236111111
0.687466,-0.2290,0.1679,0.0534,0.097382,-0.008057,0.09738249394750255
0.689975,-0.2137,0.1374,0.0763,0.101638,-0.008301,0.10163815621814475
0.692484,-0.2290,0.1374,0.0305,0.099174,-0.011230,0.09917435174566767
0.694993,-0.2366,0.1450,0.0382,0.099548,-0.001465,0.09954765545361875
0.697502,-0.2137,0.1527,0.0534,0.099498,-0.004150,0.09949788162589195
0.700011,-0.2366,0.1603,0.0458,0.100220,-0.013672,0.10021960212793068
0.70252,-0.2290,0.1527,0.0305,0.099149,0.005127,0.09914946483180427
0.705029,-0.2366,0.1450,0.0458,0.098005,-0.005371,0.09800466679408766
0.707538,-0.2214,0.1756,0.0763,0.099772,-0.007324,0.0997716376783894
0.710047,-0.2137,0.1679,0.0458,0.099050,-0.010986,0.09904991717635066
0.712556,-0.2443,0.1603,0.0534,0.098876,-0.008789,0.09887570877930682
0.715065,-0.2214,0.1603,0.0611,0.097656,-0.005127,0.09765625
0.717574,-0.2443,0.1374,0.0076,0.100195,-0.009277,0.10019471521406727
0.720083,-0.2443,0.1450,0.0687,0.099548,-0.015137,0.09954765545361875
0.722592,-0.2366,0.1756,0.0763,0.098702,-0.009766,0.098701500382263
0.725101,-0.2214,0.1298,0.0611,0.100120,-0.001709,0.10012005447247706
0.72761,-0.2214,0.1756,0.0458,0.100195,-0.014404,0.10019471521406727
0.730119,-0.2214,0.1603,0.0611,0.098901,-0.017090,0.09890059569317022
0.732628,-0.2214,0.1450,0.0382,0.099921,-0.018555,0.09992095916156982
0.735137,-0.2137,0.1756,0.0458,0.100220,-0.019775,0.10021960212793068
0.737646,-0.2290,0.1450,0.0382,0.099747,-0.012451,0.099746750764526
0.740155,-0.2214,0.1603,0.0458,0.099324,-0.010986,0.09932367322884811
0.742664,-0.2290,0.1374,0.0458,0.098478,-0.004883,0.09847751815749235
0.745173,-0.2366,0.1527,0.0534,0.099722,-0.000488,0.09972186385066259
0.747682,-0.2290,0.1450,0.0611,0.100170,-0.009766,0.10016982830020386
0.750191,-0.2366,0.1450,0.0458,0.099846,0.010254,0.0998462984199796
0.7527,-0.2061,0.1756,0.0534,0.099697,-0.008057,0.09969697693679917
0.755209,-0.2214,0.1450,0.0534,0.099373,-0.002930,0.09937344705657492
0.757718,-0.2214,0.1450,0.0458,0.099871,-0.010254,0.09987118533384301
0.760227,-0.2061,0.1756,0.0382,0.099622,-0.014893,0.09962231619520896
0.762736,-0.2214,0.1603,0.0763,0.099622,-0.004883,0.09962231619520896
0.765245,-0.2214,0.1832,0.0534,0.099622,0.000000,0.09962231619520896
0.767754,-0.2137,0.1756,0.0534,0.098876,-0.003418,0.09887570877930682
0.770263,-0.2061,0.1679,0.0458,0.099299,0.010498,0.0992987863149847
0.772772,-0.2443,0.1527,0.0611,0.098677,-0.005859,0.0986766134683996
0.775281,-0.2214,0.1603,0.0305,0.100145,-0.008057,0.10014494138634046
0.77779,-0.2137,0.1450,0.0534,0.099100,-0.013184,0.09909969100407746
0.780299,-0.2290,0.1527,0.0382,0.098876,-0.008057,0.09887570877930682
0.782808,-0.2214,0.1374,0.0458,0.099548,-0.017578,0.09954765545361875
0.785317,-0.2214,0.1450,0.0611,0.099274,-0.001709,0.0992738994011213
0.787826,-0.2214,0.1527,0.0687,0.099224,-0.011475,0.0992241255733945
0.790335,-0.2214,0.1603,0.0534,0.099946,-0.009277,0.09994584607543322
0.792844,-0.2366,0.1527,0.0458,0.099473,-0.014404,0.09947299471202854
0.795353,-0.2290,0.1298,0.0458,0.099373,-0.016113,0.09937344705657492
0.797862,-0.2061,0.1756,0.0305,0.099747,-0.019287,0.099746750764526
0.800371,-0.2214,0.1450,0.0611,0.099573,-0.007324,0.09957254236748216
0.80288,-0.2443,0.1679,0.0763,0.099174,-0.007324,0.09917435174566767
0.805389,-0.2214,0.1679,0.0611,0.100817,-0.006836,0.1008168880606524
0.807898,-0.2290,0.1450,0.0534,0.099846,0.002197,0.0998462984199796
0.810407,-0.2214,0.1756,0.0611,0.098453,-0.001221,0.09845263124362895
0.812916,-0.2137,0.1374,0.0458,0.099125,-0.006592,0.09912457791794087
0.815425,-0.2061,0.1603,0.0611,0.099921,-0.007324,0.09992095916156982
0.817934,-0.2137,0.1603,0.0382,0.098677,-0.001221,0.0986766134683996
0.820443,-0.2137,0.1603,0.0458,0.098179,-0.001709,0.0981788751911315
0.822952,-0.2137,0.1527,0.0611,0.099324,-0.006836,0.09932367322884811
0.825461,-0.2366,0.1603,0.0305,0.098726,-0.005127,0.0987263872961264
0.82797,-0.2214,0.1679,0.0229,0.101539,0.001953,0.10153860856269113
0.830479,-0.2137,0.1298,0.0458,0.100120,0.000000,0.10012005447247706
0.832988,-0.2290,0.1908,0.0458,0.099050,0.000000,0.09904991717635066
0.835497,-0.2290,0.1603,0.0229,0.099224,-0.001221,0.0992241255733945
0.838006,-0.2137,0.1527,0.0611,0.099896,0.002197,0.09989607224770641
0.840515,-0.2290,0.1603,0.0458,0.099050,-0.005615,0.09904991717635066
0.843024,-0.2290,0.1450,0.0534,0.099896,-0.009766,0.09989607224770641
0.845533,-0.2366,0.1527,0.0305,0.099100,-0.013672,0.09909969100407746
0.848042,-0.2214,0.1603,0.0458,0.100244,-0.015625,0.10024448904179409
0.850551,-0.2214,0.1756,0.0611,0.099498,-0.019287,0.09949788162589195
0.85306,-0.1985,0.1527,0.0458,0.099722,-0.015137,0.09972186385066259
0.855569,-0.2137,0.1603,0.0458,0.099448,-0.022949,0.09944810779816514
0.858078,-0.2214,0.1298,0.0611,0.099349,-0.020996,0.09934856014271151
0.860587,-0.2290,0.1527,0.0305,0.099672,-0.017334,0.09967209002293577
0.863096,-0.2214,0.1374,0.0534,0.098925,-0.010010,0.09892548260703364
0.865605,-0.2443,0.1450,0.0534,0.099398,-0.005859,0.09939833397043832
0.868114,-0.2214,0.1603,0.0534,0.099373,-0.003906,0.09937344705657492
0.870623,-0.2214,0.1450,0.0687,0.099373,-0.006104,0.09937344705657492
0.873132,-0.2137,0.1527,0.0305,0.099772,-0.009277,0.0997716376783894
0.875641,-0.2290,0.1603,0.0534,0.099722,-0.007812,0.09972186385066259
0.87815,-0.2137,0.1603,0.0763,0.099199,-0.005371,0.09919923865953109
0.880659,-0.2214,0.1603,0.0305,0.099373,-0.008057,0.09937344705657492
0.883168,-0.2290,0.1603,0.0534,0.099548,-0.011230,0.09954765545361875
0.885677,-0.2366,0.1679,0.0611,0.099971,-0.004395,0.09997073298929664
0.888186,-0.2061,0.1069,0.0229,0.100269,-0.000977,0.10026937595565749
0.890695,-0.2366,0.1374,0.0458,0.098154,-0.005127,0.0981539882772681
0.893204,-0.2214,0.1756,0.0458,0.098826,-0.006836,0.09882593495158001
0.895713,-0.2290,0.1527,0.0458,0.100070,-0.007080,0.10007028064475025
0.898222,-0.2137,0.1832,0.0382,0.100269,-0.002441,0.10026937595565749
0.900731,-0.2443,0.1603,0.0458,0.100319,-0.012939,0.1003191497833843
0.90324,-0.2290,0.1298,0.0611,0.099174,-0.008789,0.09917435174566767
0.905749,-0.2290,0.1603,0.0534,0.099647,-0.011475,0.09964720310907237
0.908258,-0.2214,0.1679,0.0382,0.099224,-0.010254,0.0992241255733945
0.910767,-0.2137,0.1832,0.0229,0.099100,-0.014160,0.09909969100407746
0.913276,-0.1908,0.1679,0.0611,0.099672,-0.013428,0.09967209002293577
0.915785,-0.2290,0.1679,0.0458,0.099697,-0.016113,0.09969697693679917
0.918294,-0.2137,0.1374,0.0458,0.098502,-0.029541,0.09850240507135576
0.920803,-0.2137,0.1450,0.0687,0.100070,-0.017334,0.10007028064475025
0.923312,-0.2290,0.1374,0.0458,0.098826,-0.019043,0.09882593495158001
0.925821,-0.2290,0.1374,0.0534,0.099772,-0.011230,0.0997716376783894
0.92833,-0.2061,0.1374,0.0534,0.098776,-0.012451,0.0987761611238532
0.930839,-0.2061,0.1450,0.0534,0.099324,-0.006836,0.09932367322884811
0.933348,-0.2214,0.1298,0.0458,0.099324,-0.007080,0.09932367322884811
0.935857,-0.2137,0.1756,0.0458,0.099274,-0.005859,0.0992738994011213
0.938366,-0.2290,0.1527,0.0382,0.099896,-0.012207,0.09989607224770641
0.940875,-0.2443,0.1450,0.0305,0.099697,-0.008301,0.09969697693679917
0.943384,-0.2214,0.1450,0.0382,0.099299,-0.005859,0.0992987863149847
0.945893,-0.2061,0.1527,0.0382,0.099349,-0.005127,0.09934856014271151
0.948402,-0.2214,0.1679,0.0611,0.099747,-0.007812,0.099746750764526
0.950911,-0.2290,0.1679,0.0305,0.098776,-0.002441,0.0987761611238532
0.95342,-0.2366,0.1450,0.0305,0.099996,-0.014648,0.09999561990316004
0.955929,-0.2443,0.1832,0.0611,0.099672,-0.005371,0.09967209002293577
0.958438,-0.2214,0.1603,0.0534,0.099971,0.001465,0.09997073298929664
0.960947,-0.2214,0.1603,0.0229,0.099622,0.001465,0.09962231619520896
0.963456,-0.2443,0.1832,0.0305,0.099846,-0.003662,0.0998462984199796
0.965965,-0.2290,0.1450,0.0458,0.099523,0.002197,0.09952276853975535
0.968474,-0.2290,0.1603,0.0458,0.099846,-0.006348,0.0998462984199796
0.970983,-0.2137,0.1679,0.0534,0.099324,-0.002441,0.09932367322884811
0.973492,-0.2366,0.1527,0.0458,0.099772,-0.010498,0.0997716376783894
0.976001,-0.2214,0.1603,0.0458,0.099896,-0.010498,0.09989607224770641
0.97851,-0.2214,0.1679,0.0458,0.099025,-0.012207,0.09902503026248725
0.981019,-0.2061,0.1450,0.0687,0.100070,-0.018555,0.10007028064475025
0.983528,-0.2137,0.1298,0.0611,0.100145,-0.027588,0.10014494138634046
0.986037,-0.2061,0.1450,0.0687,0.100095,-0.022461,0.10009516755861365
0.988546,-0.2443,0.1527,0.0458,0.097830,-0.024170,0.09783045839704382
0.991055,-0.2061,0.1679,0.0382,0.099174,-0.014648,0.09917435174566767
0.993564,-0.2214,0.1374,0.0305,0.100717,-0.010986,0.10071734040519877
0.996073,-0.2519,0.1908,0.0305,0.098403,-0.003662,0.09840285741590214
0.998582,-0.2214,0.1298,0.0305,0.098901,0.012695,0.09890059569317022
1.001091,-0.2137,0.1603,0.0534,0.099597,-0.005127,0.09959742928134556
1.0036,-0.2443,0.1374,0.0229,0.099050,-0.011230,0.09904991717635066
1.006109,-0.2366,0.1908,0.0687,0.100045,-0.010498,0.10004539373088685
1.008618,-0.2137,0.1527,0.0611,0.099921,-0.004150,0.09992095916156982
1.011127,-0.2290,0.1756,0.0382,0.099050,-0.005127,0.09904991717635066
1.013636,-0.2214,0.1527,0.0382,0.099448,-0.006592,0.09944810779816514
1.016145,-0.2290,0.1450,0.0611,0.099448,0.009277,0.09944810779816514
1.018654,-0.2443,0.1450,0.0305,0.098851,-0.006348,0.09885082186544342
1.021163,-0.2214,0.1374,0.0611,0.099373,-0.003174,0.09937344705657492
1.023672,-0.2290,0.1527,0.0611,0.098204,0.003418,0.0982037621049949
1.026181,-0.2443,0.1756,0.0687,0.098925,-0.007568,0.09892548260703364
1.02869,-0.2137,0.1603,0.0458,0.099523,-0.006104,0.09952276853975535
1.031199,-0.2137,0.1527,0.0611,0.100170,-0.007080,0.10016982830020386
1.033708,-0.2061,0.1527,0.0534,0.099946,-0.004150,0.09994584607543322
1.036217,-0.2443,0.1603,0.0534,0.100468,-0.009521,0.10046847126656472
1.038726,-0.2290,0.1603,0.0153,0.098254,-0.003906,0.09825353593272171
1.041235,-0.2214,0.1527,0.0382,0.101315,-0.012939,0.10131462633792049
1.043744,-0.2061,0.1603,0.0687,0.099896,-0.013428,0.09989607224770641
1.046253,-0.2366,0.1908,0.0763,0.099473,-0.018311,0.09947299471202854
1.048762,-0.2214,0.1527,0.0534,0.098577,-0.021240,0.09857706581294597
1.051271,-0.2366,0.1527,0.0382,0.099722,-0.019043,0.09972186385066259
1.05378,-0.2366,0.1374,0.0611,0.098478,-0.017334,0.09847751815749235
1.056289,-0.2519,0.1221,0.0458,0.099299,-0.016846,0.0992987863149847
1.058798,-0.2061,0.1374,0.0534,0.101439,-0.008057,0.1014390609072375
1.061307,-0.2366,0.1450,0.0458,0.100070,-0.008301,0.10007028064475025
1.063816,-0.2214,0.1527,0.0687,0.099448,-0.003662,0.09944810779816514
1.066325,-0.2061,0.1527,0.0611,0.099000,-0.001953,0.09900014334862385
1.068834,-0.2061,0.1756,0.0382,0.098602,-0.013916,0.09860195272680937
1.071343,-0.2290,0.1450,0.0687,0.099697,-0.006836,0.09969697693679917
1.073852,-0.2214,0.1527,0.0534,0.099324,-0.007080,0.09932367322884811
1.076361,-0.2290,0.1603,0.0534,0.099622,-0.016113,0.09962231619520896
1.07887,-0.2366,0.1527,0.0458,0.098901,-0.010742,0.09890059569317022
1.081379,-0.2061,0.1603,0.0763,0.099498,-0.007812,0.09949788162589195
1.083888,-0.2366,0.1679,0.0534,0.099199,-0.005615,0.09919923865953109
1.086397,-0.2290,0.1527,0.0458,0.098776,-0.001709,0.0987761611238532
1.088906,-0.2366,0.1679,0.0153,0.099100,-0.007812,0.09909969100407746
1.091415,-0.2137,0.1527,0.0534,0.099249,-0.007568,0.0992490124872579
1.093924,-0.2214,0.1527,0.0611,0.099373,-0.005859,0.09937344705657492
1.096433,-0.2290,0.1603,0.0382,0.100120,-0.002441,0.10012005447247706
1.098942,-0.2214,0.1679,0.0611,0.099149,-0.000244,0.09914946483180427
1.101451,-0.2137,0.1756,0.0534,0.100195,-0.001465,0.10019471521406727
1.10396,-0.2443,0.1679,0.0458,0.099199,-0.002686,0.09919923865953109
1.106469,-0.2366,0.1603,0.0458,0.099846,-0.005127,0.0998462984199796
1.108978,-0.2366,0.1756,0.0534,0.100070,-0.011230,0.10007028064475025
1.111487,-0.2595,0.1221,0.0534,0.099597,-0.015137,0.09959742928134556
1.113996,-0.2366,0.1527,0.0534,0.099373,-0.021484,0.09937344705657492
1.116505,-0.2061,0.1603,0.0382,0.100220,-0.021973,0.10021960212793068
1.119014,-0.2137,0.1527,0.0763,0.098925,-0.025635,0.09892548260703364
1.121523,-0.2214,0.1527,0.0382,0.099423,-0.000244,0.09942322088430172
1.124032,-0.2137,0.1603,0.0305,0.099772,-0.013428,0.0997716376783894
1.126541,-0.2366,0.1527,0.0611,0.099797,-0.004883,0.0997965245922528
1.12905,-0.2290,0.1527,0.0611,0.099299,-0.009521,0.0992987863149847
1.131559,-0.1985,0.1298,0.0840,0.099224,-0.004395,0.0992241255733945
1.134068,-0.2137,0.1527,0.0534,0.099299,-0.008301,0.0992987863149847
1.136577,-0.2366,0.1527,0.0687,0.099896,-0.013916,0.09989607224770641
1.139086,-0.2214,0.1527,0.0458,0.098751,-0.000977,0.0987512742099898
1.141595,-0.2214,0.1527,0.0534,0.099398,-0.007812,0.09939833397043832
1.144104,-0.2290,0.1679,0.0305,0.099324,-0.010986,0.09932367322884811
1.146613,-0.2214,0.1603,0.0458,0.099672,-0.004150,0.09967209002293577
1.149122,-0.2290,0.1603,0.0458,0.099797,-0.015625,0.0997965245922528
1.151631,-0.2137,0.1832,0.0305,0.099797,-0.003174,0.0997965245922528
1.15414,-0.2290,0.1527,0.0611,0.099871,0.003662,0.09987118533384301
1.156649,-0.2137,0.1527,0.0687,0.099324,-0.001221,0.09932367322884811
1.159158,-0.2290,0.1756,0.0687,0.099249,-0.002441,0.0992490124872579
1.161667,-0.2137,0.1527,0.0382,0.099548,0.006104,0.09954765545361875
1.164176,-0.2290,0.1679,0.0305,0.097955,-0.003662,0.09795489296636085
1.166685,-0.2366,0.1527,0.0458,0.099423,-0.010742,0.09942322088430172
1.169194,-0.2061,0.1908,0.0611,0.099423,-0.007080,0.09942322088430172
1.171703,-0.2290,0.1679,0.0611,0.099149,-0.010986,0.09914946483180427
1.174212,-0.2061,0.1374,0.0840,0.099025,-0.019531,0.09902503026248725
1.176721,-0.2290,0.1298,0.0687,0.099597,-0.022461,0.09959742928134556
1.17923,-0.2214,0.1374,0.0305,0.100244,-0.023682,0.10024448904179409
1.181739,-0.2214,0.1603,0.0305,0.100145,-0.015869,0.10014494138634046
1.184248,-0.2443,0.1298,0.0382,0.099050,-0.017334,0.09904991717635066
1.186757,-0.2366,0.1450,0.0305,0.100319,-0.011719,0.1003191497833843
1.189266,-0.1985,0.1069,0.0458,0.098826,-0.005371,0.09882593495158001
1.191775,-0.2214,0.1221,0.0458,0.100568,-0.009033,0.10056801892201835
1.194284,-0.2214,0.1298,0.0611,0.101563,-0.008057,0.10156349547655454
1.196793,-0.2214,0.1603,0.0534,0.098154,-0.005127,0.0981539882772681
1.199302,-0.2290,0.1527,0.0611,0.100294,-0.011475,0.1002942628695209
1.201811,-0.2137,0.1603,0.0763,0.099697,-0.009521,0.09969697693679917
1.20432,-0.2290,0.1756,0.0153,0.098751,-0.004150,0.0987512742099898
1.206829,-0.2214,0.1527,0.0458,0.101539,-0.005859,0.10153860856269113
1.209338,-0.2214,0.1679,0.0458,0.099125,0.001709,0.09912457791794087
1.211847,-0.2366,0.1527,0.0534,0.099324,-0.001465,0.09932367322884811
1.214356,-0.2290,0.1450,0.0534,0.097358,0.000488,0.09735760703363913
1.216865,-0.2137,0.1985,0.0534,0.099622,-0.006104,0.09962231619520896
1.219374,-0.2595,0.1679,0.0534,0.099747,-0.004395,0.099746750764526
1.221883,-0.2443,0.1527,0.0687,0.099125,-0.008057,0.09912457791794087
1.224392,-0.2443,0.1679,0.0458,0.099025,-0.005859,0.09902503026248725
1.226901,-0.2443,0.1527,0.0687,0.099747,-0.015625,0.099746750764526
1.22941,-0.2214,0.1603,0.0763,0.099448,-0.011719,0.09944810779816514
1.231919,-0.2214,0.1756,0.0382,0.099722,-0.011475,0.09972186385066259
1.234428,-0.2137,0.1374,0.0611,0.098851,-0.009277,0.09885082186544342
1.236937,-0.2366,0.1603,0.0458,0.099846,-0.012695,0.0998462984199796
1.239446,-0.2214,0.1527,0.0382,0.098403,-0.014404,0.09840285741590214
1.241955,-0.2061,0.1374,0.0382,0.100643,-0.020264,0.10064267966360856
1.244464,-0.2061,0.1450,0.0534,0.099647,-0.031250,0.09964720310907237
1.246973,-0.2290,0.1832,0.0305,0.099249,-0.031006,0.0992490124872579
1.249482,-0.2290,0.1603,0.0458,0.098801,-0.009521,0.09880104803771661
1.251991,-0.2137,0.1450,0.0458,0.099498,-0.004639,0.09949788162589195
1.2545,-0.2061,0.1603,0.0305,0.097980,-0.006104,0.09797977988022426
1.257009,-0.2137,0.1069,0.0534,0.099946,-0.001221,0.09994584607543322
1.259518,-0.1985,0.1374,0.0458,0.099125,-0.004395,0.09912457791794087
1.262027,-0.2214,0.1756,0.0534,0.098179,-0.014893,0.0981788751911315
1.264536,-0.2137,0.1603,0.0611,0.099224,-0.010742,0.0992241255733945
1.267045,-0.2061,0.1679,0.0611,0.100070,-0.009277,0.10007028064475025
1.269554,-0.2214,0.1679,0.0611,0.099747,-0.010986,0.099746750764526
1.272063,-0.2061,0.1298,0.0458,0.099423,-0.015625,0.09942322088430172
1.274572,-0.2137,0.1450,0.0611,0.100120,-0.001953,0.10012005447247706
1.277081,-0.2595,0.1756,0.0534,0.099025,0.001709,0.09902503026248725
1.27959,-0.2137,0.1527,0.0840,0.099672,0.013184,0.09967209002293577
1.282099,-0.2214,0.1603,0.0458,0.100369,0.009521,0.1003689236111111
1.284608,-0.2595,0.1527,0.0382,0.099398,-0.014160,0.09939833397043832
1.287117,-0.2366,0.1679,0.0382,0.099597,-0.004639,0.09959742928134556
1.289626,-0.2061,0.1603,0.0458,0.098652,-0.003906,0.09865172655453618
1.292135,-0.2290,0.1756,0.0611,0.098154,-0.003174,0.0981539882772681
1.294644,-0.2214,0.1450,0.0305,0.099324,-0.007568,0.09932367322884811
1.297153,-0.2137,0.1450,0.0534,0.100095,0.014893,0.10009516755861365
1.299662,-0.2290,0.1450,0.0382,0.098776,-0.013916,0.0987761611238532
1.302171,-0.2366,0.1679,0.0458,0.098751,-0.024414,0.0987512742099898
1.30468,-0.2214,0.1298,0.0458,0.098975,-0.021729,0.09897525643476045
1.307189,-0.2214,0.1908,0.0458,0.099523,-0.021729,0.09952276853975535
1.309698,-0.2137,0.1756,0.0611,0.099174,-0.022705,0.09917435174566767
1.312207,-0.2290,0.1603,0.0458,0.099498,-0.021240,0.09949788162589195
1.314716,-0.2366,0.1450,0.0305,0.099299,-0.009277,0.0992987863149847
1.317225,-0.1985,0.1450,0.0611,0.099373,-0.005127,0.09937344705657492
1.319734,-0.2061,0.1298,0.0611,0.101091,-0.004150,0.10109064411314984
1.322243,-0.2061,0.1603,0.0534,0.099871,-0.003662,0.09987118533384301
1.324752,-0.2366,0.1527,0.0458,0.100021,-0.007568,0.10002050681702344
1.327261,-0.2137,0.1527,0.0382,0.099772,-0.006592,0.0997716376783894
1.32977,-0.2290,0.1450,0.0611,0.099125,-0.009766,0.09912457791794087
1.332279,-0.2214,0.1603,0.0382,0.097930,-0.010742,0.09793000605249745
1.334788,-0.2137,0.1603,0.0611,0.099622,0.001953,0.09962231619520896
1.337297,-0.2443,0.1679,0.0687,0.099448,0.003418,0.09944810779816514
1.339806,-0.2137,0.1450,0.0305,0.099199,0.001221,0.09919923865953109
1.342315,-0.2290,0.1756,0.0763,0.101887,0.009277,0.1018870253567788
1.344824,-0.2137,0.1832,0.0382,0.097258,-0.001709,0.09725805937818552
1.347333,-0.2214,0.1450,0.0458,0.099797,-0.007080,0.0997965245922528
1.349842,-0.2290,0.1374,0.0763,0.099075,-0.009521,0.09907480409021406
1.352351,-0.2366,0.1527,0.0305,0.099647,-0.009521,0.09964720310907237
1.35486,-0.2137,0.1527,0.0305,0.100269,-0.008789,0.10026937595565749
1.357369,-0.2290,0.1679,0.0534,0.099523,-0.014648,0.09952276853975535
1.359878,-0.2214,0.1679,0.0229,0.099274,-0.011719,0.0992738994011213
1.362387,-0.2290,0.1527,0.0382,0.099000,-0.011475,0.09900014334862385
1.364896,-0.2061,0.1298,0.0611,0.099299,-0.019531,0.0992987863149847
1.367405,-0.2366,0.1450,0.0305,0.099946,-0.024414,0.09994584607543322
1.369914,-0.2443,0.1527,0.0305,0.099548,-0.019531,0.09954765545361875
1.372423,-0.2137,0.1756,0.0687,0.098726,-0.020996,0.0987263872961264
1.374932,-0.2290,0.1527,0.0534,0.099672,-0.013184,0.09967209002293577
1.377441,-0.2214,0.1450,0.0611,0.099797,-0.011475,0.0997965245922528
1.37995,-0.2061,0.1527,0.0458,0.099373,-0.004639,0.09937344705657492
1.382459,-0.2137,0.1527,0.0611,0.099523,-0.006348,0.09952276853975535
1.384968,-0.2214,0.1374,0.0611,0.100070,-0.003418,0.10007028064475025
1.387477,-0.2519,0.1450,0.0611,0.100145,-0.010498,0.10014494138634046
1.389986,-0.2366,0.1679,0.0763,0.100319,-0.006104,0.1003191497833843
1.392495,-0.2061,0.1679,0.0534,0.099573,-0.006836,0.09957254236748216
1.395004,-0.2214,0.1908,0.0534,0.099871,-0.012451,0.09987118533384301
1.397513,-0.2290,0.1527,0.0382,0.099423,-0.007080,0.09942322088430172
1.400022,-0.1985,0.1832,0.0458,0.099000,-0.005127,0.09900014334862385
1.402531,-0.1985,0.1450,0.0382,0.099224,-0.003906,0.0992241255733945
1.40504,-0.2214,0.1679,0.0382,0.099249,-0.003174,0.0992490124872579
1.407549,-0.2366,0.1603,0.0382,0.098776,-0.001465,0.0987761611238532
1.410058,-0.2214,0.1679,0.0229,0.099622,0.003906,0.09962231619520896
1.412567,-0.2214,0.1603,0.0687,0.099249,-0.005371,0.0992490124872579
1.415076,-0.2290,0.1527,0.0458,0.099597,-0.007080,0.09959742928134556
1.417585,-0.2290,0.1298,0.0534,0.099274,-0.007812,0.0992738994011213
1.420094,-0.2137,0.1756,0.0611,0.099772,-0.008545,0.0997716376783894
1.422603,-0.2137,0.1603,0.0534,0.100120,-0.007568,0.10012005447247706
1.425112,-0.2214,0.1756,0.0382,0.099025,-0.000488,0.09902503026248725
1.427621,-0.2137,0.1756,0.0382,0.099075,-0.011719,0.09907480409021406
1.43013,-0.2366,0.1603,0.0458,0.097756,-0.021240,0.09775579765545361
1.432639,-0.2366,0.1756,0.0611,0.099896,-0.020264,0.09989607224770641
1.435148,-0.2214,0.1374,0.0305,0.100468,-0.024902,0.10046847126656472
1.437657,-0.2290,0.1450,0.0458,0.099149,-0.021973,0.09914946483180427
1.440166,-0.2366,0.1603,0.0534,0.100070,-0.012207,0.10007028064475025
1.442675,-0.2214,0.1603,0.0229,0.098502,-0.005127,0.09850240507135576
1.445184,-0.2214,0.1450,0.0534,0.099274,-0.003906,0.0992738994011213
1.447693,-0.2061,0.1374,0.0534,0.099174,-0.003662,0.09917435174566767
1.450202,-0.2443,0.1603,0.0305,0.099622,-0.004150,0.09962231619520896
1.452711,-0.2366,0.1450,0.0611,0.098502,-0.011230,0.09850240507135576
1.45522,-0.2290,0.1603,0.0458,0.100095,-0.014160,0.10009516755861365
1.457729,-0.2366,0.1450,0.0458,0.099548,-0.012695,0.09954765545361875
1.460238,-0.2290,0.1603,0.0305,0.099299,-0.012207,0.0992987863149847
1.462747,-0.2137,0.1374,0.0458,0.098627,-0.004883,0.09862683964067277
1.465256,-0.2443,0.1832,0.0229,0.099722,-0.013184,0.09972186385066259
1.467765,-0.2214,0.1450,0.0382,0.099548,-0.007324,0.09954765545361875
1.470274,-0.2366,0.1450,0.0458,0.100021,0.001709,0.10002050681702344
1.472783,-0.2290,0.1679,0.0382,0.099249,-0.008057,0.0992490124872579
1.475292,-0.2137,0.1374,0.0305,0.099523,-0.007812,0.09952276853975535
1.477801,-0.2290,0.1603,0.0458,0.098726,-0.010010,0.0987263872961264
1.48031,-0.2214,0.1527,0.0458,0.099125,-0.011475,0.09912457791794087
1.482819,-0.2214,0.1679,0.0534,0.099050,-0.001953,0.09904991717635066
1.485328,-0.2366,0.1603,0.0305,0.100021,0.014893,0.10002050681702344
1.487837,-0.2290,0.1450,0.0534,0.099448,-0.003418,0.09944810779816514
1.490346,-0.2290,0.1527,0.0611,0.098751,-0.008545,0.0987512742099898
1.492855,-0.2290,0.1756,0.0458,0.099846,-0.011719,0.0998462984199796
1.495364,-0.1908,0.1832,0.0458,0.098627,-0.022705,0.09862683964067277
1.497873,-0.1908,0.1298,0.0458,0.098975,-0.031006,0.09897525643476045
1.500382,-0.2595,0.1832,0.0382,0.097283,-0.027344,0.09728294629204892
1.502891,-0.2290,0.1374,0.0305,0.099896,-0.020996,0.09989607224770641
1.5054,-0.1985,0.0992,0.0458,0.098950,-0.022705,0.09895036952089704
1.507909,-0.2137,0.1527,0.0534,0.101464,-0.010010,0.10146394782110091
1.510418,-0.2214,0.1603,0.0458,0.098278,-0.003174,0.09827842284658511
1.512927,-0.2137,0.1374,0.0534,0.099797,-0.005859,0.0997965245922528
1.515436,-0.2214,0.1603,0.0687,0.100618,-0.010498,0.10061779274974515
1.517945,-0.2137,0.1374,0.0534,0.097731,-0.012695,0.09773091074159021
1.520454,-0.2214,0.1603,0.0382,0.100419,-0.002686,0.10041869743883791
1.522963,-0.2366,0.1374,0.0382,0.098975,-0.000977,0.09897525643476045
1.525472,-0.2061,0.1298,0.0382,0.100269,-0.005859,0.10026937595565749
1.527981,-0.2137,0.1679,0.0611,0.097681,-0.000977,0.0976811369138634
1.53049,-0.2137,0.1527,0.0458,0.098801,-0.012207,0.09880104803771661
1.532999,-0.2214,0.1298,0.0687,0.100842,-0.002930,0.1008417749745158
1.535508,-0.2214,0.1603,0.0382,0.101464,-0.005859,0.10146394782110091
1.538017,-0.2366,0.1679,0.0458,0.099025,-0.012207,0.09902503026248725
1.540526,-0.2443,0.1679,0.0611,0.099125,-0.022217,0.09912457791794087
1.543035,-0.2366,0.1756,0.0229,0.099846,-0.014404,0.0998462984199796
1.545544,-0.2290,0.1908,0.0458,0.098303,-0.011230,0.09830330976044852
1.548053,-0.2443,0.1603,0.0305,0.099473,-0.003174,0.09947299471202854
1.550562,-0.2290,0.1527,0.0534,0.100021,-0.004395,0.10002050681702344
1.553071,-0.2366,0.1679,0.0458,0.099373,-0.005127,0.09937344705657492
1.55558,-0.2290,0.1603,0.0763,0.099423,-0.007324,0.09942322088430172
1.558089,-0.2366,0.1527,0.0534,0.099324,-0.012939,0.09932367322884811
1.560598,-0.2061,0.1603,0.0382,0.098502,-0.019043,0.09850240507135576
1.563107,-0.2366,0.1679,0.0458,0.099523,-0.014404,0.09952276853975535
1.565616,-0.2061,0.1527,0.0611,0.099896,-0.002686,0.09989607224770641
1.568125,-0.2443,0.1374,0.0534,0.099797,-0.012939,0.0997965245922528
1.570634,-0.2137,0.1679,0.0382,0.099821,-0.006104,0.0998214115061162
1.573143,-0.2366,0.1374,0.0687,0.098179,-0.002686,0.0981788751911315
1.575652,-0.2137,0.1832,0.0382,0.099324,-0.000977,0.09932367322884811
1.578161,-0.2443,0.1679,0.0687,0.099100,-0.006104,0.09909969100407746
1.58067,-0.2137,0.1450,0.0611,0.097656,-0.015869,0.09765625
1.583179,-0.2290,0.1679,0.0458,0.100120,-0.014160,0.10012005447247706
1.585688,-0.2214,0.1450,0.0458,0.099523,-0.009766,0.09952276853975535
1.588197,-0.2290,0.1450,0.0382,0.098726,-0.006348,0.0987263872961264
1.590706,-0.1908,0.1374,0.0611,0.100095,-0.005859,0.10009516755861365
1.593215,-0.2290,0.1756,0.0611,0.099174,-0.002930,0.09917435174566767
1.595724,-0.2061,0.1527,0.0458,0.099772,-0.004639,0.0997716376783894
1.598233,-0.2137,0.1374,0.0458,0.099747,-0.008301,0.099746750764526
1.600742,-0.2214,0.1679,0.0305,0.101837,-0.015381,0.10183725152905199
1.603251,-0.2290,0.1679,0.0534,0.099697,-0.010254,0.09969697693679917
1.60576,-0.2366,0.1527,0.0687,0.099498,-0.009033,0.09949788162589195
1.608269,-0.2137,0.1374,0.0153,0.098925,-0.008789,0.09892548260703364
1.610778,-0.2290,0.1450,0.0534,0.099523,-0.002686,0.09952276853975535
1.613287,-0.2290,0.1603,0.0534,0.098702,-0.008545,0.098701500382263
1.615796,-0.2137,0.1679,0.0611,0.099448,-0.017090,0.09944810779816514
1.618305,-0.2443,0.1603,0.0687,0.099125,-0.006592,0.09912457791794087
1.620814,-0.2061,0.1603,0.0534,0.099672,-0.015869,0.09967209002293577
1.623323,-0.2137,0.1603,0.0382,0.099896,-0.031006,0.09989607224770641
1.625832,-0.2290,0.1450,0.0458,0.100145,-0.013428,0.10014494138634046
1.628341,-0.2443,0.1679,0.0534,0.098851,-0.029785,0.09885082186544342
1.63085,-0.2366,0.1527,0.0382,0.100195,-0.012939,0.10019471521406727
1.633359,-0.2595,0.1908,0.0305,0.098502,-0.006104,0.09850240507135576
1.635868,-0.2061,0.2061,0.0382,0.096362,-0.005615,0.09636213047910296
1.638377,-0.2137,0.1832,0.0382,0.102410,-0.004639,0.10240965054791029
1.640886,-0.2290,0.1832,0.0534,0.096711,-0.007568,0.09671054727319062
1.643395,-0.2137,0.1908,0.0382,0.097258,-0.003662,0.09725805937818552
1.645904,-0.1985,0.1756,0.0382,0.100692,-0.010986,0.10069245349133536
1.648413,-0.2672,0.1679,0.0687,0.097905,-0.004883,0.09790511913863405
1.650922,-0.2137,0.1298,0.0611,0.098776,-0.005615,0.0987761611238532
1.653431,-0.2214,0.1450,0.0153,0.100220,-0.002686,0.10021960212793068
1.65594,-0.2137,0.1450,0.0458,0.098453,-0.006104,0.09845263124362895
1.658449,-0.2443,0.1527,0.0611,0.099423,-0.005127,0.09942322088430172
1.660958,-0.2214,0.1527,0.0458,0.099398,-0.006348,0.09939833397043832
1.663467,-0.2214,0.1679,0.0229,0.099896,-0.006836,0.09989607224770641
1.665976,-0.2214,0.1450,0.0534,0.099249,-0.005127,0.0992490124872579
1.668485,-0.2290,0.1679,0.0611,0.099672,-0.008545,0.09967209002293577
1.670994,-0.2137,0.1679,0.0534,0.098975,-0.004883,0.09897525643476045
1.673503,-0.2137,0.1374,0.0458,0.098901,-0.010742,0.09890059569317022
1.676012,-0.2290,0.1374,0.0458,0.099199,-0.007568,0.09919923865953109
1.678521,-0.2443,0.1679,0.0382,0.098577,-0.010254,0.09857706581294597
1.68103,-0.2290,0.1527,0.0305,0.099523,-0.011230,0.09952276853975535
1.683539,-0.2443,0.1374,0.0382,0.099324,-0.026855,0.09932367322884811
1.686048,-0.2137,0.1679,0.0611,0.098726,-0.011963,0.0987263872961264
1.688557,-0.2214,0.1603,0.0305,0.098901,-0.000244,0.09890059569317022
1.691066,-0.2595,0.1603,0.0458,0.098154,-0.011963,0.0981539882772681
1.693575,-0.2214,0.1527,0.0534,0.099125,-0.006104,0.09912457791794087
1.696084,-0.2366,0.1756,0.0458,0.099797,-0.015625,0.0997965245922528
1.698593,-0.2137,0.1527,0.0687,0.099896,-0.011230,0.09989607224770641
1.701102,-0.2214,0.1298,0.0534,0.098901,-0.013428,0.09890059569317022
1.703611,-0.2214,0.1603,0.0687,0.099349,-0.012939,0.09934856014271151
1.70612,-0.2214,0.1374,0.0611,0.099697,-0.008057,0.09969697693679917
1.708629,-0.2214,0.1756,0.0534,0.099224,-0.018799,0.0992241255733945
1.711138,-0.2290,0.1450,0.0382,0.099772,-0.010498,0.0997716376783894
1.713647,-0.2443,0.1603,0.0534,0.100145,-0.007812,0.10014494138634046
1.716156,-0.2061,0.1527,0.0534,0.099125,-0.007324,0.09912457791794087
1.718665,-0.1985,0.1527,0.0458,0.099846,-0.010986,0.0998462984199796
1.721174,-0.2214,0.1450,0.0611,0.100070,-0.007080,0.10007028064475025
1.723683,-0.2214,0.1603,0.0534,0.099821,-0.009521,0.0998214115061162
1.726192,-0.2214,0.1527,0.0534,0.099249,-0.012939,0.0992490124872579
1.728701,-0.2290,0.1374,0.0458,0.099025,-0.011475,0.09902503026248725
1.73121,-0.2214,0.1374,0.0382,0.099075,-0.016846,0.09907480409021406
1.733719,-0.2214,0.1756,0.0534,0.097258,-0.012451,0.09725805937818552
1.736228,-0.2519,0.1527,0.0534,0.099050,-0.014648,0.09904991717635066
1.738737,-0.2214,0.1679,0.0611,0.099249,-0.008057,0.0992490124872579
1.741246,-0.2366,0.1679,0.0458,0.098428,-0.009521,0.09842774432976555
1.743755,-0.1985,0.1527,0.0534,0.099075,-0.000732,0.09907480409021406
1.746264,-0.2443,0.1527,0.0153,0.099946,-0.006348,0.09994584607543322
1.748773,-0.2214,0.1527,0.0534,0.099373,-0.011963,0.09937344705657492
1.751282,-0.2366,0.1221,0.0305,0.099473,-0.007080,0.09947299471202854
1.753791,-0.2214,0.1374,0.0687,0.099772,-0.009766,0.0997716376783894
1.7563,-0.2290,0.1527,0.0611,0.098851,-0.009521,0.09885082186544342
1.758809,-0.2595,0.1756,0.0458,0.099473,-0.006104,0.09947299471202854
1.761318,-0.2366,0.1450,0.0687,0.099373,-0.002441,0.09937344705657492
1.763827,-0.2137,0.1679,0.0305,0.098652,-0.012939,0.09865172655453618
1.766336,-0.2214,0.1756,0.0458,0.098876,-0.008057,0.09887570877930682
1.768845,-0.2519,0.1756,0.0611,0.099772,-0.004150,0.0997716376783894
1.771354,-0.2443,0.1603,0.0382,0.099548,-0.005127,0.09954765545361875
1.773863,-0.2443,0.1679,0.0534,0.099075,-0.009766,0.09907480409021406
1.776372,-0.2366,0.1450,0.0458,0.099573,-0.008057,0.09957254236748216
1.778881,-0.2214,0.1527,0.0687,0.099846,-0.007324,0.0998462984199796
1.78139,-0.2137,0.1527,0.0382,0.100319,-0.005859,0.1003191497833843
1.783899,-0.2214,0.1603,0.0611,0.100195,-0.014160,0.10019471521406727
1.786408,-0.2519,0.1527,0.0382,0.098950,-0.011963,0.09895036952089704
1.788917,-0.2137,0.1450,0.0382,0.099224,-0.004395,0.0992241255733945
1.791426,-0.2214,0.1679,0.0458,0.099722,-0.005859,0.09972186385066259
1.793935,-0.2290,0.1450,0.0229,0.099373,-0.013184,0.09937344705657492
1.796444,-0.2366,0.1603,0.0534,0.098801,-0.014404,0.09880104803771661
1.798953,-0.2137,0.1527,0.0153,0.100021,-0.014893,0.10002050681702344
1.801462,-0.2366,0.1527,0.0687,0.099473,-0.004150,0.09947299471202854
1.803971,-0.2366,0.1527,0.0382,0.100294,-0.012207,0.1002942628695209
1.80648,-0.2290,0.1679,0.0382,0.099448,-0.005371,0.09944810779816514
1.808989,-0.2214,0.1527,0.0229,0.099548,-0.008301,0.09954765545361875
1.811498,-0.2137,0.1603,0.0458,0.099448,-0.009277,0.09944810779816514
1.814007,-0.2137,0.1527,0.0382,0.099772,-0.007568,0.0997716376783894
1.816516,-0.2061,0.1527,0.0076,0.099473,-0.009033,0.09947299471202854
1.819025,-0.2595,0.1679,0.0458,0.098627,-0.014893,0.09862683964067277
1.821534,-0.2214,0.1603,0.0611,0.099174,-0.002686,0.09917435174566767
1.824043,-0.2214,0.1298,0.0458,0.100593,-0.011963,0.10059290583588175
1.826552,-0.2290,0.1374,0.0305,0.101041,-0.008301,0.10104087028542304
1.829061,-0.2214,0.1603,0.0458,0.098627,-0.005371,0.09862683964067277
1.83157,-0.2290,0.1450,0.0458,0.099797,-0.005371,0.0997965245922528
1.834079,-0.2137,0.1756,0.0687,0.099747,-0.008545,0.099746750764526
1.836588,-0.2137,0.1221,0.0534,0.099324,-0.008789,0.09932367322884811
1.839097,-0.2137,0.1679,0.0382,0.100045,-0.009277,0.10004539373088685
1.841606,-0.2366,0.1603,0.0534,0.099448,-0.008789,0.09944810779816514
1.844115,-0.2137,0.1450,0.0458,0.100419,-0.009521,0.10041869743883791
1.846624,-0.2137,0.1603,0.0153,0.099075,-0.008301,0.09907480409021406
1.849133,-0.2137,0.1527,0.0534,0.098677,-0.010254,0.0986766134683996
1.851642,-0.2137,0.1374,0.0534,0.099747,-0.008301,0.099746750764526
1.854151,-0.2137,0.1756,0.0611,0.099523,-0.006104,0.09952276853975535
1.85666,-0.2443,0.1527,0.0611,0.099672,-0.010498,0.09967209002293577
1.859169,-0.2137,0.1603,0.0382,0.099324,-0.026367,0.09932367322884811
1.861678,-0.2137,0.1603,0.0763,0.098975,-0.029297,0.09897525643476045
1.864187,-0.2443,0.1527,0.0458,0.100643,-0.013184,0.10064267966360856
1.866696,-0.2366,0.1832,0.0534,0.101812,-0.005615,0.10181236461518858
1.869205,-0.2214,0.1527,0.0534,0.100095,-0.007812,0.10009516755861365
1.871714,-0.2137,0.1756,0.0382,0.099299,-0.012207,0.0992987863149847
1.874223,-0.2366,0.1679,0.0534,0.099473,-0.006836,0.09947299471202854
1.876732,-0.2061,0.1603,0.0687,0.097482,-0.006592,0.09748204160295616
1.879241,-0.2137,0.1603,0.0611,0.099100,-0.008057,0.09909969100407746
1.88175,-0.2214,0.1603,0.0687,0.099722,-0.006104,0.09972186385066259
1.884259,-0.1908,0.1679,0.0229,0.099249,-0.010010,0.0992490124872579
1.886768,-0.2290,0.1527,0.0687,0.099000,-0.011475,0.09900014334862385
1.889277,-0.2214,0.1679,0.0305,0.101215,-0.011719,0.10121507868246686
1.891786,-0.2290,0.1374,0.0458,0.099224,-0.006592,0.0992241255733945
1.894295,-0.2214,0.1679,0.0534,0.101787,-0.006836,0.10178747770132518
1.896804,-0.2443,0.1603,0.0458,0.099846,-0.019775,0.0998462984199796
1.899313,-0.2137,0.1374,0.0687,0.099747,-0.011963,0.099746750764526
1.901822,-0.2290,0.1603,0.0458,0.099846,-0.003906,0.0998462984199796
1.904331,-0.2214,0.1527,0.0458,0.099597,-0.008057,0.09959742928134556
1.90684,-0.2214,0.1832,0.0611,0.099597,-0.007812,0.09959742928134556
1.909349,-0.2366,0.1527,0.0840,0.100294,-0.008545,0.1002942628695209
1.911858,-0.1985,0.1527,0.0611,0.099149,-0.013672,0.09914946483180427
1.914367,-0.2061,0.1679,0.0534,0.099647,-0.008789,0.09964720310907237
1.916876,-0.2137,0.1679,0.0458,0.098751,-0.010742,0.0987512742099898
1.919385,-0.2290,0.1527,0.0382,0.099597,-0.003662,0.09959742928134556
1.921894,-0.2443,0.1527,0.0458,0.100319,-0.013184,0.1003191497833843
1.924403,-0.2137,0.1527,0.0534,0.098751,-0.006104,0.0987512742099898
1.926912,-0.2214,0.1527,0.0763,0.099498,-0.008545,0.09949788162589195
1.929421,-0.2443,0.1603,0.0840,0.099747,-0.006348,0.099746750764526
1.93193,-0.2137,0.1679,0.0534,0.099498,-0.010742,0.09949788162589195
1.934439,-0.2214,0.1756,0.0763,0.099523,-0.007080,0.09952276853975535
1.936948,-0.2366,0.1679,0.0305,0.099896,-0.013916,0.09989607224770641
1.939457,-0.2137,0.1450,0.0382,0.099075,-0.010254,0.09907480409021406
1.941966,-0.2290,0.1603,0.0763,0.099821,-0.009033,0.0998214115061162
1.944475,-0.2214,0.1298,0.0611,0.098453,-0.005371,0.09845263124362895
1.946984,-0.2061,0.1450,0.0382,0.099249,-0.009277,0.0992490124872579
1.949493,-0.2443,0.1603,0.0611,0.100120,-0.011230,0.10012005447247706
1.952002,-0.2061,0.1679,0.0611,0.098826,-0.006104,0.09882593495158001
1.954511,-0.1985,0.1603,0.0305,0.101265,-0.007080,0.10126485251019368
1.95702,-0.2366,0.1679,0.0534,0.099473,-0.011719,0.09947299471202854
1.959529,-0.2443,0.1527,0.0382,0.098925,-0.011963,0.09892548260703364
1.962038,-0.2061,0.1374,0.0458,0.099996,-0.011475,0.09999561990316004
1.964547,-0.2214,0.1527,0.0534,0.099423,-0.005615,0.09942322088430172
1.967056,-0.2290,0.1374,0.0458,0.100269,-0.006592,0.10026937595565749
1.969565,-0.2061,0.1527,0.0611,0.098950,-0.012207,0.09895036952089704
1.972074,-0.2366,0.1679,0.0611,0.100070,-0.012451,0.10007028064475025
1.974583,-0.2290,0.1527,0.0534,0.099722,-0.009521,0.09972186385066259
1.977092,-0.2214,0.1527,0.0458,0.099996,-0.009521,0.09999561990316004
1.979601,-0.2290,0.1603,0.0305,0.100095,-0.009521,0.10009516755861365
1.98211,-0.2214,0.1450,0.0534,0.099125,-0.011230,0.09912457791794087
1.984619,-0.2366,0.1527,0.0458,0.097358,-0.000977,0.09735760703363913
1.987128,-0.2137,0.1679,0.0458,0.099174,-0.011719,0.09917435174566767
1.989637,-0.2214,0.1603,0.0534,0.099647,-0.002930,0.09964720310907237
1.992146,-0.2290,0.1374,0.0611,0.100319,-0.010498,0.1003191497833843
1.994655,-0.2290,0.1679,0.0305,0.099846,-0.014893,0.0998462984199796
1.997164,-0.2214,0.1679,0.0458,0.099548,-0.010254,0.09954765545361875
1.999673,-0.2366,0.1603,0.0458,0.098254,-0.006592,0.09825353593272171
2.002182,-0.2137,0.1603,0.0458,0.098527,-0.010010,0.09852729198521916
2.004691,-0.2061,0.1756,0.0534,0.099996,-0.008301,0.09999561990316004
2.0072,-0.2214,0.1603,0.0534,0.099747,-0.014893,0.099746750764526
2.009709,-0.2366,0.1679,0.0534,0.100244,-0.008545,0.10024448904179409
2.012218,-0.2137,0.1527,0.0611,0.098851,-0.005371,0.09885082186544342
2.014727,-0.2214,0.1527,0.0611,0.099971,-0.006104,0.09997073298929664
2.017236,-0.2366,0.1832,0.0687,0.100195,-0.007812,0.10019471521406727
2.019745,-0.2290,0.1603,0.0687,0.098776,-0.017822,0.0987761611238532
2.022254,-0.2214,0.1374,0.0687,0.099249,-0.006348,0.0992490124872579
2.024763,-0.2290,0.1603,0.0534,0.098826,-0.012695,0.09882593495158001
2.027272,-0.2061,0.1527,0.0534,0.099573,-0.012207,0.09957254236748216
2.029781,-0.2443,0.1527,0.0611,0.099324,-0.008545,0.09932367322884811
2.03229,-0.2137,0.1603,0.0687,0.099722,-0.006348,0.09972186385066259
2.034799,-0.2214,0.1603,0.0611,0.100394,-0.024170,0.10039381052497451
2.037308,-0.2290,0.1603,0.0382,0.099125,-0.008545,0.09912457791794087
2.039817,-0.2214,0.1908,0.0534,0.098826,-0.008789,0.09882593495158001
2.042326,-0.2137,0.1374,0.0458,0.100120,-0.005371,0.10012005447247706
2.044835,-0.2443,0.1603,0.0534,0.100294,-0.009766,0.1002942628695209
2.047344,-0.2366,0.1298,0.0458,0.099821,-0.007324,0.0998214115061162
2.049853,-0.2290,0.1679,0.0305,0.100070,-0.008545,0.10007028064475025
2.052362,-0.2137,0.1450,0.0382,0.099075,-0.005615,0.09907480409021406
2.054871,-0.2137,0.1603,0.0458,0.099125,-0.010986,0.09912457791794087
2.05738,-0.2214,0.1527,0.0382,0.099274,-0.010986,0.0992738994011213
2.059889,-0.2214,0.1527,0.0534,0.099373,-0.012939,0.09937344705657492
2.062398,-0.2366,0.1679,0.0305,0.098925,-0.010254,0.09892548260703364
2.064907,-0.2366,0.1298,0.0458,0.099373,-0.007568,0.09937344705657492
2.067416,-0.2214,0.1450,0.0382,0.099324,-0.004395,0.09932367322884811
2.069925,-0.2366,0.1679,0.0305,0.098851,-0.007568,0.09885082186544342
2.072434,-0.2137,0.1679,0.0763,0.099050,-0.010498,0.09904991717635066
2.074943,-0.2214,0.1679,0.0229,0.099373,-0.006836,0.09937344705657492
2.077452,-0.2137,0.1450,0.0458,0.098652,-0.007080,0.09865172655453618
2.079961,-0.2290,0.1603,0.0687,0.099846,-0.003906,0.0998462984199796
2.08247,-0.2137,0.1374,0.0382,0.099473,-0.010986,0.09947299471202854
2.084979,-0.2290,0.1756,0.0687,0.099548,-0.006104,0.09954765545361875
2.087488,-0.2214,0.1832,0.0763,0.099821,-0.008057,0.0998214115061162
2.089997,-0.2137,0.1527,0.0458,0.100021,-0.013428,0.10002050681702344
2.092506,-0.2290,0.1221,0.0382,0.099722,-0.007812,0.09972186385066259
2.095015,-0.2137,0.1527,0.0382,0.100095,-0.011475,0.10009516755861365
2.097524,-0.2137,0.1832,0.0534,0.099000,-0.006836,0.09900014334862385
2.100033,-0.2366,0.1527,0.0763,0.098726,-0.011475,0.0987263872961264
2.102542,-0.2061,0.1603,0.0534,0.099274,-0.007324,0.0992738994011213
2.105051,-0.2214,0.1450,0.0305,0.099647,-0.010254,0.09964720310907237
2.10756,-0.2366,0.1450,0.0534,0.099697,-0.012451,0.09969697693679917
2.110069,-0.2290,0.1527,0.0687,0.099672,-0.011475,0.09967209002293577
2.112578,-0.2214,0.1603,0.0382,0.098925,-0.007812,0.09892548260703364
2.115087,-0.2214,0.1450,0.0229,0.099249,-0.014648,0.0992490124872579
2.117596,-0.2290,0.1756,0.0305,0.098826,-0.007812,0.09882593495158001
2.120105,-0.2290,0.1527,0.0382,0.100220,-0.008545,0.10021960212793068
2.122614,-0.2366,0.1221,0.0382,0.100021,-0.006836,0.10002050681702344
2.125123,-0.2519,0.1603,0.0534,0.100220,-0.006348,0.10021960212793068
2.127632,-0.2519,0.1527,0.0763,0.100319,-0.010742,0.1003191497833843
2.130141,-0.2214,0.1450,0.0687,0.100170,-0.010742,0.10016982830020386
2.13265,-0.2519,0.1450,0.0534,0.099125,-0.011719,0.09912457791794087
2.135159,-0.2290,0.1679,0.0611,0.099324,-0.009277,0.09932367322884811
2.137668,-0.2366,0.1527,0.0458,0.099199,-0.010010,0.09919923865953109
2.140177,-0.2290,0.1450,0.0305,0.098726,-0.005127,0.0987263872961264
2.142686,-0.2290,0.1527,0.0687,0.099523,-0.011963,0.09952276853975535
2.145195,-0.2366,0.1527,0.0382,0.099149,-0.001465,0.09914946483180427
2.147704,-0.2290,0.1450,0.0305,0.099423,-0.008789,0.09942322088430172
2.150213,-0.2290,0.1603,0.0458,0.100021,-0.011475,0.10002050681702344
2.152722,-0.2366,0.1603,0.0458,0.099025,-0.012207,0.09902503026248725
2.155231,-0.1908,0.1374,0.0534,0.099523,-0.016113,0.09952276853975535
2.15774,-0.2443,0.1527,0.0305,0.100145,-0.014648,0.10014494138634046
2.160249,-0.2137,0.1527,0.0382,0.099000,-0.011963,0.09900014334862385
2.162758,-0.2137,0.1603,0.0458,0.099373,-0.008545,0.09937344705657492
2.165267,-0.2061,0.1374,0.0534,0.100468,-0.007812,0.10046847126656472
2.167776,-0.2290,0.1298,0.0534,0.099971,-0.011475,0.09997073298929664
2.170285,-0.2290,0.1679,0.0534,0.099697,-0.011475,0.09969697693679917
2.172794,-0.2214,0.1527,0.0840,0.099149,-0.011230,0.09914946483180427
2.175303,-0.2290,0.1603,0.0458,0.099050,-0.005371,0.09904991717635066
2.177812,-0.2366,0.1756,0.0382,0.099747,-0.010742,0.099746750764526
2.180321,-0.2366,0.1450,0.0611,0.099573,-0.009033,0.09957254236748216
2.18283,-0.2061,0.1450,0.0458,0.098925,-0.014160,0.09892548260703364
2.185339,-0.2137,0.1527,0.0458,0.099498,-0.010254,0.09949788162589195
2.187848,-0.2137,0.1527,0.0763,0.100419,-0.009521,0.10041869743883791
2.190357,-0.2290,0.1527,0.0382,0.099697,-0.010498,0.09969697693679917
2.192866,-0.2214,0.1450,0.0458,0.098826,-0.027100,0.09882593495158001
2.195375,-0.2214,0.1450,0.0305,0.099946,-0.007568,0.09994584607543322
2.197884,-0.2214,0.1527,0.0458,0.099149,-0.011963,0.09914946483180427
2.200393,-0.2214,0.1603,0.0229,0.100021,-0.005127,0.10002050681702344
2.202902,-0.2366,0.1450,0.0382,0.099971,-0.009033,0.09997073298929664
2.205411,-0.2290,0.1679,0.0611,0.101340,-0.009521,0.10133951325178389
2.20792,-0.2366,0.1679,0.0687,0.099747,-0.011963,0.099746750764526
2.210429,-0.2214,0.1603,0.0382,0.099025,-0.013916,0.09902503026248725
2.212938,-0.2214,0.1450,0.0229,0.099597,-0.012451,0.09959742928134556
2.215447,-0.2137,0.1374,0.0458,0.100941,-0.013916,0.10094132262996941
2.217956,-0.2137,0.1374,0.0687,0.099971,-0.010010,0.09997073298929664
2.220465,-0.2290,0.1450,0.0534,0.099100,-0.012939,0.09909969100407746
2.222974,-0.2290,0.1603,0.0305,0.099349,-0.010742,0.09934856014271151
2.225483,-0.2137,0.1527,0.0534,0.100294,-0.002930,0.1002942628695209
2.227992,-0.2214,0.1679,0.0763,0.100021,-0.011719,0.10002050681702344
2.230501,-0.2137,0.1679,0.0763,0.100344,-0.004150,0.1003440366972477
2.23301,-0.2366,0.1527,0.0382,0.099772,-0.004639,0.0997716376783894
2.235519,-0.2366,0.1527,0.0458,0.099473,-0.010986,0.09947299471202854
2.238028,-0.1908,0.1374,0.0534,0.099647,-0.006836,0.09964720310907237
2.240537,-0.2214,0.1756,0.0611,0.099996,-0.011719,0.09999561990316004
2.243046,-0.2366,0.1756,0.0458,0.099921,-0.007812,0.09992095916156982
2.245555,-0.2137,0.1450,0.0305,0.099224,-0.013916,0.0992241255733945
2.248064,-0.2137,0.1603,0.0534,0.100070,-0.006104,0.10007028064475025
2.250573,-0.2214,0.1756,0.0458,0.099324,-0.016113,0.09932367322884811
2.253082,-0.2595,0.1832,0.0534,0.098030,-0.009033,0.09802955370795106
2.255591,-0.1985,0.1450,0.0687,0.098502,-0.007568,0.09850240507135576
2.2581,-0.1985,0.1603,0.0305,0.099871,-0.003662,0.09987118533384301
2.260609,-0.2137,0.1679,0.0382,0.098602,-0.006104,0.09860195272680937
2.263118,-0.2366,0.1527,0.0382,0.099324,-0.014893,0.09932367322884811
2.265627,-0.2290,0.1221,0.0458,0.100021,-0.011230,0.10002050681702344
2.268136,-0.2290,0.1756,0.0687,0.100543,-0.002686,0.10054313200815494
2.270645,-0.2290,0.1374,0.0458,0.100269,-0.009766,0.10026937595565749
2.273154,-0.2366,0.1679,0.0458,0.097358,-0.007324,0.09735760703363913
2.275663,-0.1908,0.1756,0.0611,0.098925,-0.008789,0.09892548260703364
2.278172,-0.2290,0.1679,0.0382,0.097855,-0.010498,0.09785534531090723
2.280681,-0.2443,0.1679,0.0229,0.099025,-0.004395,0.09902503026248725
2.28319,-0.2137,0.1298,0.0611,0.097532,-0.011230,0.09753181543068297
2.285699,-0.2137,0.1527,0.0458,0.099697,-0.001953,0.09969697693679917
2.288208,-0.2137,0.1603,0.0382,0.099373,-0.005615,0.09937344705657492
2.290717,-0.2290,0.1374,0.0382,0.099398,-0.007080,0.09939833397043832
2.293226,-0.1985,0.1603,0.0534,0.099722,-0.008301,0.09972186385066259
2.295735,-0.2366,0.1450,0.0611,0.100419,-0.007568,0.10041869743883791
2.298244,-0.2519,0.1985,0.0458,0.097706,-0.004395,0.0977060238277268
2.300753,-0.1985,0.1374,0.0305,0.101912,-0.007812,0.1019119122706422
2.303262,-0.2290,0.1221,0.0534,0.101837,-0.006348,0.10183725152905199
2.305771,-0.2214,0.1527,0.0534,0.099448,-0.006348,0.09944810779816514
2.30828,-0.2137,0.1679,0.0382,0.099000,-0.003418,0.09900014334862385
2.310789,-0.2290,0.1603,0.0534,0.099125,-0.011475,0.09912457791794087
2.313298,-0.2290,0.1374,0.0687,0.100195,-0.008789,0.10019471521406727
2.315807,-0.2366,0.1832,0.0534,0.099025,-0.014404,0.09902503026248725
2.318316,-0.1985,0.1374,0.0305,0.099174,0.001953,0.09917435174566767
2.320825,-0.2214,0.1679,0.0305,0.099846,-0.009766,0.0998462984199796
2.323334,-0.2443,0.1832,0.0382,0.100145,-0.007324,0.10014494138634046
2.325843,-0.2137,0.1603,0.0534,0.098975,-0.011963,0.09897525643476045
2.328352,-0.2290,0.1527,0.0458,0.099821,-0.004639,0.0998214115061162
2.330861,-0.2366,0.1450,0.0611,0.098104,-0.013672,0.09810421444954127
2.33337,-0.2137,0.1679,0.0382,0.100170,-0.009033,0.10016982830020386
2.335879,-0.2443,0.1756,0.0611,0.099349,-0.004639,0.09934856014271151
2.338388,-0.2214,0.1679,0.0458,0.099025,-0.010254,0.09902503026248725
2.340897,-0.2214,0.1603,0.0382,0.099722,-0.006836,0.09972186385066259
2.343406,-0.2137,0.1832,0.0229,0.099697,-0.007324,0.09969697693679917
2.345915,-0.2290,0.1756,0.0611,0.099697,-0.005859,0.09969697693679917
2.348424,-0.2290,0.1450,0.0763,0.099797,-0.009033,0.0997965245922528
2.350933,-0.2366,0.1603,0.0534,0.099697,-0.001465,0.09969697693679917
2.353442,-0.2214,0.1450,0.0458,0.099050,-0.006348,0.09904991717635066
2.355951,-0.2366,0.1527,0.0534,0.099050,-0.010010,0.09904991717635066
2.35846,-0.2137,0.1450,0.0534,0.099299,-0.002197,0.0992987863149847
2.360969,-0.2290,0.1679,0.0611,0.099722,-0.008789,0.09972186385066259
2.363478,-0.2366,0.1450,0.0534,0.098801,-0.012451,0.09880104803771661
2.365987,-0.2214,0.1450,0.0611,0.099398,-0.013916,0.09939833397043832
2.368496,-0.2519,0.1450,0.0534,0.100145,-0.011230,0.10014494138634046
2.371005,-0.2290,0.1298,0.0458,0.100095,-0.014160,0.10009516755861365
2.373514,-0.2290,0.1679,0.0382,0.099622,-0.007812,0.09962231619520896
2.376023,-0.2137,0.1679,0.0687,0.099523,-0.016357,0.09952276853975535
2.378532,-0.2290,0.1298,0.0458,0.099373,-0.006592,0.09937344705657492
2.381041,-0.1985,0.1832,0.0763,0.100220,-0.013428,0.10021960212793068
2.38355,-0.2366,0.1603,0.0229,0.099423,-0.011963,0.09942322088430172
2.386059,-0.2290,0.1374,0.0534,0.099448,-0.007080,0.09944810779816514
2.388568,-0.2443,0.1603,0.0534,0.098901,-0.009766,0.09890059569317022
2.391077,-0.2137,0.1679,0.0305,0.099996,-0.014160,0.09999561990316004
2.393586,-0.2214,0.1603,0.0229,0.099498,-0.001953,0.09949788162589195
2.396095,-0.2214,0.1527,0.0534,0.099821,-0.009766,0.0998214115061162
2.398604,-0.2061,0.1603,0.0382,0.099697,-0.002930,0.09969697693679917
2.401113,-0.2366,0.1603,0.0229,0.098378,-0.002930,0.09837797050203873
2.403622,-0.2443,0.1527,0.0611,0.099174,-0.005127,0.09917435174566767
2.406131,-0.2214,0.1603,0.0534,0.099747,-0.013184,0.099746750764526
2.40864,-0.2366,0.1527,0.0305,0.099622,-0.011475,0.09962231619520896
2.411149,-0.2214,0.1756,0.0458,0.099398,-0.012695,0.09939833397043832
2.413658,-0.2061,0.1603,0.0534,0.100120,-0.013428,0.10012005447247706
2.416167,-0.2061,0.1603,0.0611,0.099448,-0.008057,0.09944810779816514
2.418676,-0.2061,0.1603,0.0153,0.100244,-0.010010,0.10024448904179409
2.421185,-0.2214,0.1450,0.0611,0.099747,-0.006592,0.099746750764526
2.423694,-0.2214,0.1450,0.0687,0.099299,-0.005859,0.0992987863149847
2.426203,-0.2061,0.1527,0.0687,0.098502,-0.007080,0.09850240507135576
2.428712,-0.2290,0.1756,0.0763,0.099548,-0.013916,0.09954765545361875
2.431221,-0.1985,0.1603,0.0382,0.098677,-0.007080,0.0986766134683996
2.43373,-0.2443,0.1374,0.0458,0.099324,-0.001221,0.09932367322884811
2.436239,-0.2214,0.1450,0.0458,0.099697,-0.004395,0.09969697693679917
2.438748,-0.2061,0.1603,0.0382,0.097631,-0.011719,0.0976313630861366
2.441257,-0.2290,0.1374,0.0153,0.099846,-0.010254,0.0998462984199796
2.443766,-0.2290,0.1603,0.0534,0.099050,-0.006348,0.09904991717635066
2.446275,-0.2443,0.1832,0.0458,0.099199,-0.003418,0.09919923865953109
2.448784,-0.2137,0.1298,0.0458,0.098005,-0.007324,0.09800466679408766
2.451293,-0.2214,0.1450,0.0458,0.098975,-0.010498,0.09897525643476045
2.453802,-0.2290,0.1527,0.0611,0.099274,-0.008301,0.0992738994011213
2.456311,-0.2137,0.1756,0.0305,0.099573,-0.011475,0.09957254236748216
2.45882,-0.2137,0.1527,0.0611,0.099249,-0.011963,0.0992490124872579
2.461329,-0.2061,0.1374,0.0763,0.098876,-0.006836,0.09887570877930682
2.463838,-0.2214,0.1527,0.0382,0.099498,-0.010010,0.09949788162589195
2.466347,-0.2214,0.1374,0.0534,0.099722,-0.011230,0.09972186385066259
2.468856,-0.2137,0.1603,0.0534,0.100294,-0.006592,0.1002942628695209
2.471365,-0.1908,0.1527,0.0305,0.099722,-0.019531,0.09972186385066259
2.473874,-0.2366,0.1527,0.0458,0.099821,-0.009766,0.0998214115061162
2.476383,-0.2443,0.1450,0.0382,0.099125,-0.008789,0.09912457791794087
2.478892,-0.2137,0.1603,0.0534,0.098652,-0.008057,0.09865172655453618
2.481401,-0.2290,0.1527,0.0534,0.099747,-0.010498,0.099746750764526
2.48391,-0.2290,0.1756,0.0534,0.100269,-0.006592,0.10026937595565749
2.486419,-0.2214,0.1527,0.0611,0.099697,-0.010986,0.09969697693679917
2.488928,-0.2290,0.1679,0.0229,0.098378,-0.011963,0.09837797050203873
2.491437,-0.2290,0.1756,0.0458,0.098975,-0.003906,0.09897525643476045
2.493946,-0.2366,0.1450,0.0458,0.099622,-0.010498,0.09962231619520896
2.496455,-0.2137,0.1679,0.0687,0.099597,0.000244,0.09959742928134556
2.498964,-0.2061,0.1450,0.0763,0.099622,-0.001953,0.09962231619520896
2.501473,-0.2214,0.1450,0.0611,0.098652,-0.014160,0.09865172655453618
2.503982,-0.2214,0.1679,0.0458,0.099025,-0.005859,0.09902503026248725
2.506491,-0.2214,0.1450,0.0458,0.099349,-0.017334,0.09934856014271151
2.509,-0.2137,0.1679,0.0382,0.100021,-0.007568,0.10002050681702344
2.511509,-0.2214,0.1527,0.0458,0.098826,-0.013428,0.09882593495158001
2.514018,-0.2290,0.1450,0.0611,0.099797,-0.011963,0.0997965245922528
2.516527,-0.2137,0.1527,0.0382,0.100095,-0.012451,0.10009516755861365
2.519036,-0.2137,0.1832,0.0534,0.099224,-0.006592,0.0992241255733945
2.521545,-0.2290,0.1603,0.0687,0.099174,-0.015137,0.09917435174566767
2.524054,-0.2290,0.1603,0.0534,0.099896,-0.001465,0.09989607224770641
2.526563,-0.2290,0.1679,0.0534,0.099199,-0.011963,0.09919923865953109
2.529072,-0.2366,0.1679,0.0534,0.099224,-0.005127,0.0992241255733945
2.531581,-0.2290,0.1603,0.0763,0.099896,-0.005127,0.09989607224770641
2.53409,-0.2290,0.1527,0.0611,0.100220,-0.005371,0.10021960212793068
2.536599,-0.2137,0.1450,0.0763,0.099423,-0.010986,0.09942322088430172
2.539108,-0.2214,0.1603,0.0687,0.098527,-0.006348,0.09852729198521916
2.541617,-0.2137,0.1527,0.0534,0.098851,-0.006104,0.09885082186544342
2.544126,-0.2214,0.1603,0.0458,0.099971,-0.006836,0.09997073298929664
2.546635,-0.2137,0.1679,0.0458,0.099921,-0.007080,0.09992095916156982
2.549144,-0.2290,0.1527,0.0534,0.099896,-0.002686,0.09989607224770641
2.551653,-0.2214,0.1679,0.0458,0.099921,-0.007324,0.09992095916156982
2.554162,-0.2214,0.1832,0.0534,0.099647,-0.029541,0.09964720310907237
2.556671,-0.2214,0.1527,0.0153,0.099373,-0.010254,0.09937344705657492
2.55918,-0.2290,0.1679,0.0534,0.098925,-0.009766,0.09892548260703364
2.561689,-0.2290,0.1603,0.0611,0.099821,-0.010986,0.0998214115061162
2.564198,-0.2290,0.1756,0.0305,0.098901,-0.006348,0.09890059569317022
2.566707,-0.2290,0.1527,0.0687,0.100269,-0.007812,0.10026937595565749
2.569216,-0.2366,0.1450,0.0534,0.099100,-0.011963,0.09909969100407746
2.571725,-0.2366,0.1450,0.0534,0.099373,-0.013672,0.09937344705657492
2.574234,-0.2137,0.1603,0.0763,0.099523,-0.006348,0.09952276853975535
2.576743,-0.2290,0.1450,0.0534,0.099797,-0.007080,0.0997965245922528
2.579252,-0.1985,0.1603,0.0382,0.099249,-0.002197,0.0992490124872579
2.581761,-0.2443,0.1527,0.0382,0.099647,-0.006836,0.09964720310907237
2.58427,-0.2137,0.1679,0.0534,0.099548,-0.012451,0.09954765545361875
2.586779,-0.2290,0.1756,0.0534,0.099797,-0.005371,0.0997965245922528
2.589288,-0.2366,0.1527,0.0382,0.099000,-0.012207,0.09900014334862385
2.591797,-0.2214,0.1756,0.0458,0.098776,-0.012695,0.0987761611238532
2.594306,-0.2137,0.1450,0.0534,0.099274,-0.009521,0.0992738994011213
2.596815,-0.2519,0.1832,0.0611,0.099946,-0.012695,0.09994584607543322
2.599324,-0.2214,0.1603,0.0458,0.099025,-0.009033,0.09902503026248725
2.601833,-0.2214,0.1679,0.0611,0.099622,-0.008789,0.09962231619520896
2.604342,-0.2214,0.1603,0.0534,0.100045,-0.009033,0.10004539373088685
2.606851,-0.2443,0.1374,0.0534,0.098851,-0.000732,0.09885082186544342
2.60936,-0.2214,0.1756,0.0611,0.099846,-0.003418,0.0998462984199796
2.611869,-0.2061,0.1450,0.0382,0.099622,-0.008057,0.09962231619520896
2.614378,-0.2061,0.1527,0.0916,0.099025,-0.012451,0.09902503026248725
2.616887,-0.2214,0.1679,0.0611,0.099324,-0.008057,0.09932367322884811
2.619396,-0.2214,0.1374,0.0382,0.099025,-0.010010,0.09902503026248725
2.621905,-0.2137,0.1603,0.0534,0.099473,-0.011475,0.09947299471202854
2.624414,-0.2290,0.1679,0.0458,0.100145,-0.009277,0.10014494138634046
2.626923,-0.2290,0.1603,0.0534,0.101539,-0.006836,0.10153860856269113
2.629432,-0.2366,0.1298,0.0687,0.099747,-0.007324,0.099746750764526
2.631941,-0.2137,0.1374,0.0458,0.098104,-0.002686,0.09810421444954127
2.63445,-0.2137,0.1756,0.0458,0.099398,-0.005371,0.09939833397043832
2.636959,-0.2214,0.1527,0.0611,0.098278,-0.007568,0.09827842284658511
2.639468,-0.2214,0.1527,0.0611,0.099647,-0.006592,0.09964720310907237
2.641977,-0.2214,0.1527,0.0534,0.099075,-0.006836,0.09907480409021406
2.644486,-0.2519,0.1527,0.0611,0.099846,-0.010498,0.0998462984199796
2.646995,-0.2290,0.1527,0.0611,0.098950,-0.003662,0.09895036952089704
2.649504,-0.2290,0.1527,0.0611,0.099274,-0.007080,0.0992738994011213
2.652013,-0.2290,0.1527,0.0534,0.100269,-0.004395,0.10026937595565749
2.654522,-0.2061,0.1450,0.0611,0.099597,-0.010986,0.09959742928134556
2.657031,-0.2290,0.1527,0.0458,0.098776,-0.010986,0.0987761611238532
2.65954,-0.2214,0.1679,0.0611,0.099299,-0.009521,0.0992987863149847
2.662049,-0.2290,0.1603,0.0534,0.099423,-0.003662,0.09942322088430172
2.664558,-0.2214,0.1450,0.0458,0.098975,-0.012451,0.09897525643476045
2.667067,-0.2290,0.1603,0.0382,0.099075,-0.011963,0.09907480409021406
2.669576,-0.2137,0.1527,0.0382,0.099772,-0.013916,0.0997716376783894
2.672085,-0.2214,0.1603,0.0458,0.099896,-0.012939,0.09989607224770641
2.674594,-0.2061,0.1450,0.0687,0.100120,-0.001221,0.10012005447247706
2.677103,-0.2214,0.1756,0.0458,0.099423,-0.009521,0.09942322088430172
2.679612,-0.1985,0.1450,0.0534,0.098925,-0.013184,0.09892548260703364
2.682121,-0.2366,0.1756,0.0458,0.097681,-0.012695,0.0976811369138634
2.68463,-0.2214,0.1603,0.0611,0.099597,-0.028076,0.09959742928134556
2.687139,-0.2290,0.1679,0.0458,0.097532,-0.013916,0.09753181543068297
2.689648,-0.2137,0.1527,0.0611,0.098801,-0.013184,0.09880104803771661
2.692157,-0.2366,0.1603,0.0305,0.097308,-0.007812,0.09730783320591233
2.694666,-0.2061,0.1450,0.0382,0.099647,-0.011963,0.09964720310907237
2.697175,-0.2290,0.1679,0.0458,0.099398,-0.003418,0.09939833397043832
2.699684,-0.2214,0.1756,0.0534,0.098925,-0.007812,0.09892548260703364
2.702193,-0.2366,0.1527,0.0305,0.100244,-0.007812,0.10024448904179409
2.704702,-0.1985,0.1527,0.0382,0.099125,-0.006592,0.09912457791794087
2.707211,-0.2137,0.1832,0.0382,0.100045,-0.001953,0.10004539373088685
2.70972,-0.2290,0.1832,0.0458,0.098826,-0.004395,0.09882593495158001
2.712229,-0.2214,0.1298,0.0687,0.100593,-0.006104,0.10059290583588175
2.714738,-0.2214,0.1374,0.0458,0.100867,-0.008301,0.1008666618883792
2.717247,-0.2366,0.1603,0.0534,0.099448,-0.007812,0.09944810779816514
2.719756,-0.1908,0.1603,0.0534,0.099398,-0.000977,0.09939833397043832
2.722265,-0.2214,0.1679,0.0382,0.100568,-0.014893,0.10056801892201835
2.724774,-0.2214,0.1756,0.0534,0.099249,-0.016113,0.0992490124872579
2.727283,-0.2443,0.1450,0.0382,0.099349,-0.020264,0.09934856014271151
2.729792,-0.1985,0.1527,0.0611,0.099299,-0.016846,0.0992987863149847
2.732301,-0.2290,0.1450,0.0458,0.099921,-0.019043,0.09992095916156982
2.73481,-0.2290,0.1603,0.0382,0.099597,-0.010498,0.09959742928134556
2.737319,-0.2137,0.1374,0.0534,0.099747,-0.009277,0.099746750764526
2.739828,-0.2366,0.1527,0.0611,0.099050,-0.005859,0.09904991717635066
2.742337,-0.2290,0.1527,0.0382,0.099199,-0.007812,0.09919923865953109
2.744846,-0.2061,0.1527,0.0305,0.099373,-0.004639,0.09937344705657492
2.747355,-0.2214,0.1679,0.0382,0.099821,-0.007080,0.0998214115061162
2.749864,-0.2290,0.1679,0.0687,0.099324,-0.005615,0.09932367322884811
2.752373,-0.2290,0.1679,0.0534,0.099249,-0.002197,0.0992490124872579
2.754882,-0.2137,0.1527,0.0458,0.099697,0.013672,0.09969697693679917
2.757391,-0.2290,0.1679,0.0305,0.099871,-0.014160,0.09987118533384301
2.7599,-0.2443,0.1450,0.0458,0.099722,0.015137,0.09972186385066259
2.762409,-0.2366,0.1603,0.0534,0.099622,-0.005371,0.09962231619520896
2.764918,-0.2061,0.1679,0.0458,0.097905,-0.006104,0.09790511913863405
2.767427,-0.2137,0.1756,0.0534,0.100170,-0.005127,0.10016982830020386
2.769936,-0.2290,0.1908,0.0687,0.099324,-0.013184,0.09932367322884811
2.772445,-0.2214,0.1679,0.0382,0.099149,-0.006592,0.09914946483180427
2.774954,-0.2214,0.1756,0.0305,0.098801,-0.007080,0.09880104803771661
2.777463,-0.2290,0.1603,0.0611,0.098801,-0.011475,0.09880104803771661
2.779972,-0.2366,0.1679,0.0458,0.100120,-0.014160,0.10012005447247706
2.782481,-0.2290,0.1756,0.0534,0.100244,-0.013428,0.10024448904179409
2.78499,-0.2290,0.1756,0.0458,0.100269,-0.011719,0.10026937595565749
2.787499,-0.2214,0.1756,0.0611,0.098925,-0.009277,0.09892548260703364
2.790008,-0.2214,0.1603,0.0534,0.099199,-0.016602,0.09919923865953109
2.792517,-0.2290,0.1603,0.0534,0.101439,-0.010010,0.1014390609072375
2.795026,-0.2443,0.1527,0.0534,0.100269,-0.010010,0.10026937595565749
2.797535,-0.2214,0.1832,0.0458,0.099722,-0.008545,0.09972186385066259
2.800044,-0.2214,0.1450,0.0458,0.099946,-0.006836,0.09994584607543322
2.802553,-0.2290,0.1679,0.0611,0.099697,-0.007568,0.09969697693679917
2.805062,-0.2519,0.1374,0.0611,0.098851,-0.008057,0.09885082186544342
2.807571,-0.2443,0.2061,0.0534,0.097806,-0.001465,0.09780557148318042
2.81008,-0.2214,0.1450,0.0534,0.099821,-0.003662,0.0998214115061162
2.812589,-0.2366,0.1527,0.0611,0.098726,-0.005127,0.0987263872961264
2.815098,-0.2214,0.1679,0.0458,0.099971,-0.008301,0.09997073298929664
2.817607,-0.2366,0.1756,0.0534,0.098776,-0.004639,0.0987761611238532
2.820116,-0.2137,0.1527,0.0458,0.099871,-0.006592,0.09987118533384301
2.822625,-0.2290,0.1679,0.0534,0.098154,-0.009766,0.0981539882772681
2.825134,-0.2137,0.1450,0.0229,0.099797,-0.013184,0.0997965245922528
2.827643,-0.2290,0.1679,0.0611,0.099174,-0.005859,0.09917435174566767
2.830152,-0.2366,0.1450,0.0534,0.099722,-0.013916,0.09972186385066259
2.832661,-0.2519,0.1450,0.0611,0.098876,-0.012207,0.09887570877930682
2.83517,-0.2366,0.1450,0.0305,0.099871,-0.014648,0.09987118533384301
2.837679,-0.2290,0.1450,0.0611,0.099697,-0.009766,0.09969697693679917
2.840188,-0.2366,0.1450,0.0611,0.098478,-0.013184,0.09847751815749235
2.842697,-0.2366,0.1603,0.0382,0.099672,-0.007812,0.09967209002293577
2.845206,-0.2290,0.1679,0.0458,0.098403,-0.004639,0.09840285741590214
2.847715,-0.2214,0.1374,0.0458,0.100170,-0.004395,0.10016982830020386
2.850224,-0.2214,0.1756,0.0382,0.098925,-0.001953,0.09892548260703364
2.852733,-0.2214,0.1756,0.0687,0.099871,-0.010498,0.09987118533384301
2.855242,-0.2061,0.1832,0.0382,0.098925,-0.003418,0.09892548260703364
2.857751,-0.2214,0.1908,0.0534,0.100145,-0.003662,0.10014494138634046
2.86026,-0.2366,0.1450,0.0382,0.100070,-0.007812,0.10007028064475025
2.862769,-0.2137,0.1450,0.0229,0.100170,-0.003662,0.10016982830020386
2.865278,-0.2366,0.1756,0.0840,0.099398,-0.003662,0.09939833397043832
2.867787,-0.2595,0.1603,0.0458,0.099647,-0.008545,0.09964720310907237
2.870296,-0.2214,0.1679,0.0611,0.099548,-0.009766,0.09954765545361875
2.872805,-0.2366,0.1450,0.0611,0.099548,-0.010498,0.09954765545361875
2.875314,-0.2366,0.1832,0.0382,0.099523,-0.009766,0.09952276853975535
2.877823,-0.2214,0.1450,0.0458,0.099697,-0.014893,0.09969697693679917
2.880332,-0.2290,0.1756,0.0534,0.099075,-0.011230,0.09907480409021406
2.882841,-0.2290,0.1679,0.0611,0.100344,-0.016113,0.1003440366972477
2.88535,-0.2290,0.1756,0.0382,0.099000,-0.007324,0.09900014334862385
2.887859,-0.2214,0.1603,0.0382,0.100419,-0.005859,0.10041869743883791
2.890368,-0.2137,0.1527,0.0534,0.099871,-0.012451,0.09987118533384301
2.892877,-0.2137,0.1603,0.0458,0.100867,-0.006836,0.1008666618883792
2.895386,-0.2595,0.1221,0.0534,0.099224,-0.007080,0.0992241255733945
2.897895,-0.2214,0.1603,0.0611,0.098726,-0.011475,0.0987263872961264
2.900404,-0.2290,0.1450,0.0687,0.101315,0.003418,0.10131462633792049
2.902913,-0.2290,0.1756,0.0611,0.098453,-0.003174,0.09845263124362895
2.905422,-0.2290,0.1832,0.0534,0.099473,-0.008301,0.09947299471202854
2.907931,-0.2290,0.1603,0.0458,0.098851,-0.009521,0.09885082186544342
2.91044,-0.2137,0.1450,0.0534,0.099622,-0.002686,0.09962231619520896
2.912949,-0.2137,0.1527,0.0534,0.098328,-0.008057,0.09832819667431192
2.915458,-0.2137,0.1450,0.0458,0.099125,-0.006104,0.09912457791794087
2.917967,-0.2366,0.1679,0.0534,0.099324,-0.004639,0.09932367322884811
2.920476,-0.2366,0.1450,0.0382,0.100244,-0.009033,0.10024448904179409
2.922985,-0.2366,0.1832,0.0458,0.100294,-0.010010,0.1002942628695209
2.925494,-0.2214,0.1527,0.0611,0.099174,-0.007568,0.09917435174566767
2.928003,-0.2519,0.1603,0.0534,0.099821,-0.007080,0.0998214115061162
2.930512,-0.2137,0.1450,0.0458,0.099622,-0.010498,0.09962231619520896
2.933021,-0.2214,0.1679,0.0305,0.099373,-0.014893,0.09937344705657492
2.93553,-0.2137,0.1527,0.0382,0.098950,-0.028809,0.09895036952089704
2.938039,-0.2290,0.1603,0.0611,0.100220,-0.008301,0.10021960212793068
2.940548,-0.2061,0.1679,0.0305,0.100319,-0.008057,0.1003191497833843
2.943057,-0.2214,0.1527,0.0458,0.099672,-0.005859,0.09967209002293577
2.945566,-0.2443,0.1374,0.0611,0.099871,-0.009277,0.09987118533384301
2.948075,-0.2366,0.1450,0.0305,0.100319,-0.007812,0.1003191497833843
2.950584,-0.2137,0.1679,0.0382,0.099050,-0.006348,0.09904991717635066
2.953093,-0.2214,0.1450,0.0687,0.099299,-0.003906,0.0992987863149847
2.955602,-0.2443,0.1603,0.0534,0.100095,-0.006104,0.10009516755861365
2.958111,-0.2519,0.1756,0.0534,0.100394,-0.005615,0.10039381052497451
2.96062,-0.2443,0.1527,0.0458,0.099747,-0.008789,0.099746750764526
2.963129,-0.2137,0.1527,0.0153,0.100145,-0.010498,0.10014494138634046
2.965638,-0.2061,0.1527,0.0687,0.099075,-0.013916,0.09907480409021406
2.968147,-0.2214,0.1450,0.0458,0.099448,-0.008301,0.09944810779816514
2.970656,-0.2290,0.1603,0.0458,0.099622,-0.003906,0.09962231619520896
2.973165,-0.2290,0.1603,0.0382,0.099946,-0.019287,0.09994584607543322
2.975674,-0.2214,0.1679,0.0229,0.100145,-0.013184,0.10014494138634046
2.978183,-0.2137,0.1603,0.0763,0.099871,-0.008057,0.09987118533384301
2.980692,-0.2137,0.1450,0.0611,0.099224,-0.011963,0.0992241255733945
2.983201,-0.2061,0.1527,0.0382,0.099573,-0.011230,0.09957254236748216
2.98571,-0.2214,0.1603,0.0687,0.099996,-0.007080,0.09999561990316004
2.988219,-0.2290,0.1679,0.0611,0.100767,-0.011719,0.10076711423292559
2.990728,-0.2214,0.1603,0.0382,0.099797,-0.010254,0.0997965245922528
2.993237,-0.2290,0.1603,0.0534,0.099324,-0.013428,0.09932367322884811
2.995746,-0.2137,0.1527,0.0611,0.098826,-0.004883,0.09882593495158001
2.998255,-0.2290,0.1527,0.0687,0.099722,-0.003174,0.09972186385066259
3.000764,-0.2366,0.1603,0.0687,0.099075,-0.004395,0.09907480409021406
3.003273,-0.2061,0.1527,0.0382,0.099249,-0.006348,0.0992490124872579
3.005782,-0.2366,0.1603,0.0229,0.099523,-0.002930,0.09952276853975535
3.008291,-0.2519,0.1603,0.0534,0.098925,-0.006348,0.09892548260703364
3.0108,-0.2214,0.1603,0.0458,0.099473,-0.008057,0.09947299471202854
3.013309,-0.2214,0.1450,0.0458,0.100045,-0.007568,0.10004539373088685
3.015818,-0.2214,0.1679,0.0534,0.098950,-0.019287,0.09895036952089704
3.018327,-0.1908,0.1374,0.0611,0.097855,-0.000488,0.09785534531090723
3.020836,-0.2214,0.1527,0.0840,0.098876,-0.013428,0.09887570877930682
3.023345,-0.2290,0.1756,0.0611,0.100045,-0.029785,0.10004539373088685
3.025854,-0.2137,0.1603,0.0534,0.101539,-0.002686,0.10153860856269113
3.028363,-0.2137,0.1603,0.0687,0.099498,-0.013916,0.09949788162589195
3.030872,-0.2061,0.1374,0.0382,0.098975,-0.015137,0.09897525643476045
3.033381,-0.2214,0.1527,0.0611,0.100195,-0.001709,0.10019471521406727
3.03589,-0.2366,0.1756,0.0458,0.099548,-0.006836,0.09954765545361875
3.038399,-0.2214,0.1527,0.0534,0.100045,-0.009766,0.10004539373088685
3.040908,-0.2137,0.1603,0.0153,0.099772,-0.002197,0.0997716376783894
3.043417,-0.2061,0.1527,0.0458,0.099423,-0.010742,0.09942322088430172
3.045926,-0.1908,0.1374,0.0382,0.098876,-0.010498,0.09887570877930682
3.048435,-0.2290,0.1450,0.0687,0.099149,-0.002441,0.09914946483180427
3.050944,-0.2214,0.1603,0.0382,0.098975,-0.005859,0.09897525643476045
3.053453,-0.2061,0.1679,0.0611,0.099299,-0.010254,0.0992987863149847
3.055962,-0.2214,0.1679,0.0611,0.098776,-0.004395,0.0987761611238532
3.058471,-0.2214,0.1679,0.0534,0.099199,-0.007568,0.09919923865953109
3.06098,-0.2137,0.1679,0.0611,0.099100,-0.001953,0.09909969100407746
3.063489,-0.2137,0.1374,0.0458,0.098054,-0.013428,0.09805444062181447
3.065998,-0.2290,0.1603,0.0534,0.100618,-0.007568,0.10061779274974515
3.068507,-0.2366,0.1603,0.0458,0.099821,-0.010254,0.0998214115061162
3.071016,-0.2290,0.1527,0.0687,0.099747,-0.008545,0.099746750764526
3.073525,-0.2595,0.1527,0.0382,0.099125,-0.008057,0.09912457791794087
3.076034,-0.2214,0.1450,0.0534,0.099373,-0.014893,0.09937344705657492
3.078543,-0.2290,0.1450,0.0763,0.100394,-0.017090,0.10039381052497451
3.081052,-0.2137,0.1603,0.0534,0.099548,-0.007080,0.09954765545361875
3.083561,-0.2137,0.1527,0.0763,0.099797,-0.015381,0.0997965245922528
3.08607,-0.1985,0.1374,0.0611,0.099797,-0.014893,0.0997965245922528
3.088579,-0.2061,0.1832,0.0534,0.099622,-0.014893,0.09962231619520896
3.091088,-0.2290,0.1374,0.0458,0.099896,-0.012695,0.09989607224770641
3.093597,-0.2290,0.1374,0.0687,0.099548,-0.010986,0.09954765545361875
3.096106,-0.2290,0.1756,0.0611,0.100369,-0.004150,0.1003689236111111
3.098615,-0.2214,0.1756,0.0534,0.098901,-0.001953,0.09890059569317022
3.101124,-0.2290,0.1679,0.0534,0.099373,-0.011475,0.09937344705657492
3.103633,-0.2137,0.1679,0.0382,0.099224,-0.010254,0.0992241255733945
3.106142,-0.2137,0.1908,0.0305,0.099249,-0.001221,0.0992490124872579
3.108651,-0.2137,0.1527,0.0458,0.101439,-0.010010,0.1014390609072375
3.11116,-0.2137,0.1450,0.0534,0.098901,-0.008545,0.09890059569317022
3.113669,-0.2214,0.1603,0.0458,0.099224,-0.002686,0.0992241255733945
3.116178,-0.2290,0.1527,0.0382,0.099224,-0.013184,0.0992241255733945
3.118687,-0.2061,0.1450,0.0534,0.098950,-0.006836,0.09895036952089704
3.121196,-0.2214,0.1679,0.0382,0.099597,-0.008789,0.09959742928134556
3.123705,-0.2214,0.1527,0.0458,0.099971,-0.015137,0.09997073298929664
3.126214,-0.2214,0.1527,0.0534,0.099075,-0.008789,0.09907480409021406
3.128723,-0.2290,0.1527,0.0305,0.099473,-0.011719,0.09947299471202854
3.131232,-0.2137,0.1603,0.0458,0.100593,-0.000977,0.10059290583588175
3.133741,-0.2290,0.1679,0.0153,0.099996,-0.007080,0.09999561990316004
3.13625,-0.2366,0.1603,0.0458,0.099647,-0.000244,0.09964720310907237
3.138759,-0.2214,0.1603,0.0382,0.100195,-0.003418,0.10019471521406727
3.141268,-0.2061,0.1832,0.0611,0.098876,-0.010498,0.09887570877930682
3.143777,-0.1985,0.1298,0.0153,0.099647,-0.002686,0.09964720310907237
3.146286,-0.2443,0.1450,0.0687,0.101439,-0.006348,0.1014390609072375
3.148795,-0.2290,0.1527,0.0611,0.100045,-0.011230,0.10004539373088685
3.151304,-0.2519,0.1756,0.0534,0.098278,-0.007324,0.09827842284658511
3.153813,-0.2214,0.1679,0.0534,0.099125,-0.008545,0.09912457791794087
3.156322,-0.2137,0.1756,0.0534,0.099299,-0.011719,0.0992987863149847
3.158831,-0.2443,0.1603,0.0687,0.098876,-0.008545,0.09887570877930682
3.16134,-0.2214,0.1450,0.0382,0.099174,-0.001221,0.09917435174566767
3.163849,-0.2214,0.1679,0.0611,0.099548,-0.007568,0.09954765545361875
3.166358,-0.2137,0.1603,0.0534,0.100170,-0.010986,0.10016982830020386
3.168867,-0.2214,0.1603,0.0382,0.099025,-0.007324,0.09902503026248725
3.171376,-0.2061,0.1527,0.0611,0.099722,-0.011230,0.09972186385066259
3.173885,-0.2137,0.1450,0.0382,0.099373,-0.013672,0.09937344705657492
3.176394,-0.2366,0.1679,0.0458,0.099299,-0.013428,0.0992987863149847
3.178903,-0.2595,0.1450,0.0916,0.099448,-0.009033,0.09944810779816514
3.181412,-0.2061,0.1756,0.0458,0.099548,-0.009277,0.09954765545361875
3.183921,-0.2519,0.1679,0.0687,0.099871,-0.008789,0.09987118533384301
3.18643,-0.2061,0.1603,0.0458,0.100220,-0.007080,0.10021960212793068
3.188939,-0.2214,0.1679,0.0458,0.099473,-0.013184,0.09947299471202854
3.191448,-0.2137,0.1374,0.0305,0.099423,-0.013916,0.09942322088430172
3.193957,-0.2137,0.1527,0.0534,0.099971,-0.018799,0.09997073298929664
3.196466,-0.2137,0.1603,0.0305,0.100095,-0.008545,0.10009516755861365
3.198975,-0.2214,0.1603,0.0534,0.100021,-0.002441,0.10002050681702344
3.201484,-0.2443,0.1756,0.0458,0.099174,-0.003906,0.09917435174566767
3.203993,-0.2214,0.1374,0.0305,0.100344,-0.001465,0.1003440366972477
3.206502,-0.2137,0.1832,0.0382,0.097159,-0.005371,0.0971585117227319
3.209011,-0.2214,0.1756,0.0382,0.098851,-0.008545,0.09885082186544342
3.21152,-0.2137,0.1527,0.0534,0.099125,-0.001221,0.09912457791794087
3.214029,-0.2137,0.1603,0.0534,0.099448,-0.012207,0.09944810779816514
3.216538,-0.2290,0.1756,0.0534,0.099498,-0.004639,0.09949788162589195
3.219047,-0.2290,0.1832,0.0458,0.100220,-0.014160,0.10021960212793068
3.221556,-0.2290,0.1756,0.0382,0.099498,-0.007812,0.09949788162589195
3.224065,-0.2214,0.1450,0.0611,0.099473,-0.010742,0.09947299471202854
3.226574,-0.2366,0.1527,0.0687,0.099747,-0.008789,0.099746750764526
3.229083,-0.2443,0.1527,0.0611,0.100145,-0.011719,0.10014494138634046
3.231592,-0.2137,0.1679,0.0611,0.099050,-0.010742,0.09904991717635066
3.234101,-0.2290,0.1450,0.0687,0.099697,-0.009766,0.09969697693679917
3.23661,-0.2366,0.1832,0.0458,0.099125,-0.008057,0.09912457791794087
3.239119,-0.2214,0.1527,0.0458,0.100170,-0.003174,0.10016982830020386
3.241628,-0.2290,0.1374,0.0534,0.099448,-0.009277,0.09944810779816514
3.244137,-0.2290,0.1527,0.0382,0.100344,-0.012451,0.1003440366972477
3.246646,-0.2061,0.1450,0.0458,0.099000,-0.006348,0.09900014334862385
3.249155,-0.2214,0.1527,0.0534,0.099100,-0.010010,0.09909969100407746
3.251664,-0.2214,0.1679,0.0382,0.098876,-0.005127,0.09887570877930682
3.254173,-0.2290,0.1679,0.0687,0.100070,-0.003418,0.10007028064475025
3.256682,-0.2290,0.1679,0.0534,0.098478,-0.007324,0.09847751815749235
3.259191,-0.2214,0.1298,0.0382,0.100518,-0.011963,0.10051824509429154
3.2617,-0.2366,0.1221,0.0534,0.100692,-0.014648,0.10069245349133536
3.264209,-0.2519,0.1679,0.0229,0.098826,-0.008789,0.09882593495158001
3.266718,-0.2137,0.1450,0.0382,0.098901,-0.011230,0.09890059569317022
3.269227,-0.2290,0.1756,0.0229,0.099423,-0.007568,0.09942322088430172
3.271736,-0.2214,0.1756,0.0534,0.098901,-0.011475,0.09890059569317022
3.274245,-0.2137,0.1603,0.0382,0.099100,-0.008789,0.09909969100407746
3.276754,-0.2214,0.1603,0.0534,0.099597,-0.013672,0.09959742928134556
3.279263,-0.2214,0.1450,0.0458,0.098901,-0.007324,0.09890059569317022
3.281772,-0.2290,0.1603,0.0305,0.099423,-0.008057,0.09942322088430172
3.284281,-0.1985,0.1527,0.0534,0.099946,-0.012451,0.09994584607543322
3.28679,-0.2214,0.1527,0.0840,0.099821,-0.002441,0.0998214115061162
3.289299,-0.2214,0.1603,0.0382,0.099946,-0.010986,0.09994584607543322
3.291808,-0.2137,0.1527,0.0840,0.099498,-0.006348,0.09949788162589195
3.294317,-0.2290,0.1679,0.0458,0.098776,-0.005859,0.0987761611238532
3.296826,-0.2290,0.1527,0.0458,0.098776,-0.003662,0.0987761611238532
3.299335,-0.2443,0.1603,0.0687,0.100045,-0.008789,0.10004539373088685
3.301844,-0.2137,0.1603,0.0611,0.099448,-0.000977,0.09944810779816514
3.304353,-0.2443,0.1450,0.0534,0.098751,-0.013916,0.0987512742099898
3.306862,-0.2137,0.1145,0.0534,0.099324,-0.009766,0.09932367322884811
3.309371,-0.2366,0.1527,0.0382,0.098975,-0.010010,0.09897525643476045
3.31188,-0.1908,0.1527,0.0534,0.099747,-0.013184,0.099746750764526
3.314389,-0.2366,0.1527,0.0458,0.100170,-0.005127,0.10016982830020386
3.316898,-0.2748,0.1450,0.0458,0.098925,-0.009521,0.09892548260703364
3.319407,-0.2443,0.1679,0.0611,0.099050,-0.008301,0.09904991717635066
3.321916,-0.2443,0.1832,0.0382,0.099000,-0.015381,0.09900014334862385
3.324425,-0.2137,0.1603,0.0458,0.100643,-0.007568,0.10064267966360856
3.326934,-0.2061,0.1832,0.0534,0.098876,-0.009033,0.09887570877930682
3.329443,-0.2366,0.1679,0.0763,0.098478,-0.008789,0.09847751815749235
3.331952,-0.2366,0.1679,0.0534,0.098627,-0.012939,0.09862683964067277
3.334461,-0.2137,0.1603,0.0534,0.098925,-0.006348,0.09892548260703364
3.33697,-0.2137,0.1374,0.0305,0.100145,-0.013428,0.10014494138634046
3.339479,-0.2137,0.1756,0.0458,0.099871,-0.010254,0.09987118533384301
3.341988,-0.2290,0.1450,0.0611,0.100369,-0.011230,0.1003689236111111
3.344497,-0.2366,0.1679,0.0534,0.098851,-0.008545,0.09885082186544342
3.347006,-0.2061,0.1527,0.0534,0.098975,-0.015381,0.09897525643476045
3.349515,-0.2061,0.1679,0.0458,0.099373,-0.008301,0.09937344705657492
3.352024,-0.2290,0.1756,0.0458,0.100369,-0.005859,0.1003689236111111
3.354533,-0.2366,0.1450,0.0458,0.098502,-0.009277,0.09850240507135576
3.357042,-0.2137,0.1603,0.0458,0.099174,-0.006104,0.09917435174566767
3.359551,-0.2061,0.1374,0.0458,0.099747,-0.007324,0.099746750764526
3.36206,-0.2366,0.1527,0.0534,0.099324,-0.011963,0.09932367322884811
3.364569,-0.2366,0.1450,0.0382,0.099349,-0.008545,0.09934856014271151
3.367078,-0.2443,0.1756,0.0687,0.100892,-0.006104,0.1008915488022426
3.369587,-0.2290,0.1374,0.0687,0.099747,-0.013184,0.099746750764526
3.372096,-0.2290,0.1603,0.0229,0.099772,-0.009521,0.0997716376783894
3.374605,-0.2366,0.1603,0.0611,0.099473,-0.008301,0.09947299471202854
3.377114,-0.2214,0.1527,0.0611,0.099772,-0.019531,0.0997716376783894
3.379623,-0.2290,0.1679,0.0458,0.099448,-0.007568,0.09944810779816514
3.382132,-0.2137,0.1450,0.0611,0.097333,-0.014893,0.09733272011977573
3.384641,-0.2443,0.1832,0.0611,0.101041,-0.004639,0.10104087028542304
3.38715,-0.2443,0.1679,0.0611,0.099174,-0.010986,0.09917435174566767
3.389659,-0.2137,0.1832,0.0229,0.099349,-0.011475,0.09934856014271151
3.392168,-0.2061,0.1527,0.0382,0.097631,-0.001953,0.0976313630861366
3.394677,-0.2366,0.1374,0.0382,0.100145,-0.008789,0.10014494138634046
3.397186,-0.2290,0.1679,0.0382,0.100991,-0.008301,0.10099109645769622
3.399695,-0.2366,0.1832,0.0458,0.098005,-0.002197,0.09800466679408766
3.402204,-0.2214,0.1527,0.0534,0.099772,-0.005859,0.0997716376783894
3.404713,-0.2137,0.1374,0.0611,0.099797,-0.011230,0.0997965245922528
3.407222,-0.2214,0.1603,0.0229,0.099797,-0.006348,0.0997965245922528
3.409731,-0.2519,0.1679,0.0611,0.099125,-0.011475,0.09912457791794087
3.41224,-0.2137,0.1450,0.0611,0.099747,-0.012939,0.099746750764526
3.414749,-0.2061,0.1527,0.0611,0.099846,-0.011963,0.0998462984199796
3.417258,-0.2290,0.1603,0.0458,0.099224,-0.005859,0.0992241255733945
3.419767,-0.2290,0.1450,0.0611,0.100045,-0.014648,0.10004539373088685
3.422276,-0.2366,0.1374,0.0611,0.100294,-0.011719,0.1002942628695209
3.424785,-0.2443,0.1450,0.0229,0.100021,-0.011719,0.10002050681702344
3.427294,-0.2214,0.1756,0.0382,0.100543,-0.007812,0.10054313200815494
3.429803,-0.2137,0.1450,0.0382,0.099075,-0.006348,0.09907480409021406
3.432312,-0.2443,0.1756,0.0763,0.098378,-0.007080,0.09837797050203873
3.434821,-0.2443,0.1298,0.0382,0.100220,-0.006592,0.10021960212793068
3.43733,-0.2290,0.1756,0.0534,0.099622,-0.003418,0.09962231619520896
3.439839,-0.2290,0.1450,0.0458,0.099548,-0.008057,0.09954765545361875
3.442348,-0.2137,0.1450,0.0916,0.099647,-0.011230,0.09964720310907237
3.444857,-0.2519,0.1679,0.0458,0.099448,-0.005859,0.09944810779816514
3.447366,-0.2137,0.1450,0.0611,0.099821,-0.011230,0.0998214115061162
3.449875,-0.2137,0.1679,0.0763,0.099921,-0.008789,0.09992095916156982
3.452384,-0.2290,0.1374,0.0611,0.099224,-0.028809,0.0992241255733945
3.454893,-0.2290,0.1603,0.0458,0.099125,-0.013428,0.09912457791794087
3.457402,-0.2061,0.1679,0.0458,0.099647,-0.013672,0.09964720310907237
3.459911,-0.2290,0.1527,0.0382,0.099722,-0.010010,0.09972186385066259
3.46242,-0.2214,0.1450,0.0534,0.101713,-0.007568,0.10171281695973496
3.464929,-0.2214,0.1603,0.0458,0.098801,-0.010498,0.09880104803771661
3.467438,-0.2290,0.1527,0.0611,0.099772,-0.010986,0.0997716376783894
3.469947,-0.1985,0.1374,0.0458,0.099647,-0.008789,0.09964720310907237
3.472456,-0.2290,0.1832,0.0458,0.099448,-0.005859,0.09944810779816514
3.474965,-0.2137,0.1832,0.0382,0.099747,-0.007324,0.099746750764526
3.477474,-0.2443,0.1450,0.0687,0.100145,-0.010254,0.10014494138634046
3.479983,-0.2366,0.1908,0.0458,0.100170,-0.003662,0.10016982830020386
3.482492,-0.2366,0.1603,0.0458,0.099324,-0.004150,0.09932367322884811
3.485001,-0.2137,0.1527,0.0305,0.101688,-0.012207,0.10168793004587155
3.48751,-0.2214,0.1603,0.0611,0.099797,-0.008789,0.0997965245922528
3.490019,-0.2366,0.1450,0.0305,0.098876,-0.010498,0.09887570877930682
3.492528,-0.2595,0.1679,0.0534,0.100120,-0.009033,0.10012005447247706
3.495037,-0.2443,0.1603,0.0458,0.099747,-0.007324,0.099746750764526
3.497546,-0.2137,0.1603,0.0458,0.099722,-0.004883,0.09972186385066259
3.500055,-0.2290,0.1679,0.0458,0.099672,-0.015137,0.09967209002293577
3.502564,-0.2290,0.1679,0.0305,0.099871,-0.004639,0.09987118533384301
3.505073,-0.2137,0.1374,0.0305,0.099174,-0.016846,0.09917435174566767
3.507582,-0.2137,0.1450,0.0611,0.098925,-0.005371,0.09892548260703364
3.510091,-0.2214,0.1603,0.0611,0.099622,-0.001465,0.09962231619520896
3.5126,-0.2061,0.1527,0.0229,0.099672,-0.011963,0.09967209002293577
3.515109,-0.2290,0.1527,0.0382,0.099573,-0.011230,0.09957254236748216
3.517618,-0.2214,0.1603,0.0687,0.099697,-0.014160,0.09969697693679917
3.520127,-0.2214,0.1450,0.0687,0.098901,-0.009277,0.09890059569317022
3.522636,-0.2366,0.1450,0.0382,0.098901,-0.008789,0.09890059569317022
3.525145,-0.2443,0.1756,0.0458,0.099398,-0.007080,0.09939833397043832
3.527654,-0.2214,0.1756,0.0534,0.100120,-0.009277,0.10012005447247706
3.530163,-0.2290,0.1679,0.0458,0.098229,-0.001465,0.0982286490188583
3.532672,-0.2443,0.1527,0.0458,0.100468,-0.010254,0.10046847126656472
3.535181,-0.2061,0.1527,0.0687,0.101489,-0.009033,0.10148883473496431
3.53769,-0.2290,0.1450,0.0687,0.099946,-0.006592,0.09994584607543322
3.540199,-0.2366,0.1603,0.0458,0.100220,-0.011230,0.10021960212793068
3.542708,-0.2290,0.1679,0.0687,0.099896,-0.009766,0.09989607224770641
3.545217,-0.2214,0.1603,0.0458,0.099946,-0.005371,0.09994584607543322
3.547726,-0.2595,0.1450,0.0763,0.100319,-0.011230,0.1003191497833843
3.550235,-0.2137,0.1298,0.0458,0.100668,-0.009033,0.10066756657747196
3.552744,-0.1985,0.1603,0.0534,0.100070,-0.008545,0.10007028064475025
3.555253,-0.2290,0.1450,0.0534,0.099821,-0.007080,0.0998214115061162
3.557762,-0.2290,0.1679,0.0611,0.098801,-0.011475,0.09880104803771661
3.560271,-0.2137,0.1527,0.0763,0.098079,-0.010986,0.09807932753567787
3.56278,-0.2214,0.1450,0.0458,0.100244,-0.011719,0.10024448904179409
3.565289,-0.2137,0.1450,0.0611,0.099797,-0.008301,0.0997965245922528
3.567798,-0.2366,0.1908,0.0382,0.098179,-0.009277,0.0981788751911315
3.570307,-0.2366,0.1450,0.0458,0.097880,-0.008545,0.09788023222477064
3.572816,-0.2290,0.1221,0.0534,0.101290,-0.007568,0.10128973942405708
3.575325,-0.2137,0.1527,0.0458,0.099274,-0.001953,0.0992738994011213
3.577834,-0.2290,0.1527,0.0534,0.099448,-0.015625,0.09944810779816514
3.580343,-0.2366,0.1450,0.0611,0.098975,-0.010010,0.09897525643476045
3.582852,-0.2290,0.1603,0.0534,0.099921,-0.009521,0.09992095916156982
3.585361,-0.2290,0.1450,0.0382,0.097855,-0.012939,0.09785534531090723
3.58787,-0.2061,0.1603,0.0305,0.099498,-0.006592,0.09949788162589195
3.590379,-0.2214,0.1450,0.0916,0.099075,-0.010498,0.09907480409021406
3.592888,-0.2214,0.1756,0.0534,0.099423,-0.007080,0.09942322088430172
3.595397,-0.2290,0.1603,0.0382,0.099398,-0.007568,0.09939833397043832
3.597906,-0.2290,0.1679,0.0229,0.099523,-0.002686,0.09952276853975535
3.600415,-0.2366,0.1756,0.0534,0.098478,-0.010010,0.09847751815749235
3.602924,-0.2214,0.1603,0.0534,0.100170,-0.003174,0.10016982830020386
3.605433,-0.2366,0.1603,0.0458,0.099548,-0.008789,0.09954765545361875
3.607942,-0.2214,0.1679,0.0611,0.099274,-0.002686,0.0992738994011213
3.610451,-0.2137,0.1527,0.0458,0.099224,-0.007568,0.0992241255733945
3.61296,-0.2061,0.1527,0.0305,0.100817,-0.007080,0.1008168880606524
3.615469,-0.2290,0.1756,0.0534,0.098652,-0.010498,0.09865172655453618
3.617978,-0.2214,0.1832,0.0382,0.098776,-0.011230,0.0987761611238532
3.620487,-0.2366,0.1450,0.0458,0.100120,-0.009277,0.10012005447247706
3.622996,-0.2137,0.1527,0.0611,0.099971,-0.005127,0.09997073298929664
3.625505,-0.2366,0.1450,0.0534,0.098776,-0.010254,0.0987761611238532
3.628014,-0.2290,0.1603,0.0458,0.100319,-0.016113,0.1003191497833843
3.630523,-0.2061,0.1298,0.0534,0.100419,-0.008789,0.10041869743883791
3.633032,-0.2366,0.1527,0.0611,0.099423,-0.011963,0.09942322088430172
3.635541,-0.2214,0.1832,0.0458,0.098054,-0.013428,0.09805444062181447
3.63805,-0.1985,0.1527,0.0458,0.098652,-0.009521,0.09865172655453618
3.640559,-0.2443,0.1450,0.0382,0.099747,-0.011719,0.099746750764526
3.643068,-0.2290,0.1527,0.0458,0.098826,-0.010742,0.09882593495158001
3.645577,-0.2366,0.1374,0.0458,0.099672,-0.009766,0.09967209002293577
3.648086,-0.2290,0.1527,0.0534,0.099224,-0.008301,0.0992241255733945
3.650595,-0.2137,0.1527,0.0534,0.098925,-0.010742,0.09892548260703364
3.653104,-0.2290,0.1832,0.0611,0.099174,-0.012695,0.09917435174566767
3.655613,-0.2443,0.1527,0.0382,0.100468,-0.006836,0.10046847126656472
3.658122,-0.2137,0.1603,0.0611,0.099622,-0.006836,0.09962231619520896
3.660631,-0.2137,0.1679,0.0458,0.099075,-0.011475,0.09907480409021406
3.66314,-0.2443,0.1527,0.0534,0.099324,-0.009521,0.09932367322884811
3.665649,-0.2366,0.1450,0.0534,0.099946,-0.007812,0.09994584607543322
3.668158,-0.2214,0.1603,0.0611,0.099597,-0.011963,0.09959742928134556
3.670667,-0.2137,0.1603,0.0534,0.099324,-0.005371,0.09932367322884811
3.673176,-0.2290,0.1603,0.0382,0.099647,-0.008301,0.09964720310907237
3.675685,-0.2137,0.1603,0.0382,0.099224,-0.003418,0.0992241255733945
3.678194,-0.2290,0.1450,0.0840,0.100070,-0.005615,0.10007028064475025
3.680703,-0.2443,0.1527,0.0305,0.099498,-0.006348,0.09949788162589195
3.683212,-0.2290,0.1603,0.0305,0.099324,-0.006348,0.09932367322884811
3.685721,-0.2137,0.1450,0.0534,0.099149,-0.006348,0.09914946483180427
3.68823,-0.2290,0.1527,0.0687,0.100394,-0.005615,0.10039381052497451
3.690739,-0.2214,0.1679,0.0611,0.099622,-0.004639,0.09962231619520896
3.693248,-0.2290,0.1527,0.0611,0.099149,-0.004883,0.09914946483180427
3.695757,-0.2214,0.1679,0.0611,0.098925,-0.008789,0.09892548260703364
3.698266,-0.2214,0.1603,0.0305,0.098826,-0.003662,0.09882593495158001
3.700775,-0.2137,0.1374,0.0458,0.099274,-0.010498,0.0992738994011213
3.703284,-0.2290,0.1298,0.0458,0.099373,-0.011719,0.09937344705657492
3.705793,-0.2366,0.1756,0.0534,0.100095,-0.006348,0.10009516755861365
3.708302,-0.2214,0.1832,0.0458,0.099075,-0.005371,0.09907480409021406
3.710811,-0.2214,0.1679,0.0611,0.099622,-0.014404,0.09962231619520896
3.71332,-0.2137,0.1603,0.0458,0.099373,-0.011230,0.09937344705657492
3.715829,-0.2519,0.1450,0.0687,0.101016,-0.009521,0.10101598337155963
3.718338,-0.2137,0.1527,0.0458,0.099921,-0.005371,0.09992095916156982
3.720847,-0.2290,0.1603,0.0611,0.098527,-0.007812,0.09852729198521916
3.723356,-0.2214,0.1374,0.0534,0.099299,-0.014160,0.0992987863149847
3.725865,-0.2214,0.1298,0.0763,0.099373,-0.005371,0.09937344705657492
3.728374,-0.2137,0.1450,0.0611,0.099772,-0.008301,0.0997716376783894
3.730883,-0.2443,0.1985,0.0534,0.099896,-0.004395,0.09989607224770641
3.733392,-0.2137,0.1527,0.0458,0.099224,-0.004883,0.0992241255733945
3.735901,-0.2137,0.1527,0.0687,0.099100,-0.009033,0.09909969100407746
3.73841,-0.2214,0.1603,0.0458,0.099772,-0.001221,0.0997716376783894
3.740919,-0.2061,0.1679,0.0458,0.099398,-0.003662,0.09939833397043832
3.743428,-0.2061,0.1603,0.0382,0.098901,-0.005615,0.09890059569317022
3.745937,-0.2137,0.1603,0.0229,0.099274,-0.002930,0.0992738994011213
3.748446,-0.2443,0.1450,0.0305,0.099523,-0.008057,0.09952276853975535
3.750955,-0.2137,0.1374,0.0763,0.101713,-0.000732,0.10171281695973496
3.753464,-0.2137,0.1756,0.0840,0.099274,-0.010986,0.0992738994011213
3.755973,-0.2137,0.1603,0.0611,0.099797,-0.002686,0.0997965245922528
3.758482,-0.2137,0.1527,0.0382,0.099672,-0.006592,0.09967209002293577
3.760991,-0.2290,0.1145,0.0611,0.100294,-0.012207,0.1002942628695209
3.7635,-0.2137,0.1603,0.0153,0.099971,-0.005371,0.09997073298929664
3.766009,-0.2061,0.1069,0.0611,0.100170,-0.016113,0.10016982830020386
3.768518,-0.2290,0.1450,0.0305,0.098652,-0.006836,0.09865172655453618
3.771027,-0.2290,0.1679,0.0534,0.099423,-0.008057,0.09942322088430172
3.773536,-0.2366,0.1527,0.0611,0.099050,-0.007812,0.09904991717635066
3.776045,-0.2061,0.1756,0.0611,0.099772,-0.014160,0.0997716376783894
3.778554,-0.2595,0.1603,0.0534,0.100120,-0.007812,0.10012005447247706
3.781063,-0.2443,0.1527,0.0687,0.100344,-0.007080,0.1003440366972477
3.783572,-0.2214,0.1527,0.0458,0.099199,-0.006104,0.09919923865953109
3.786081,-0.2290,0.1603,0.0611,0.099398,-0.009277,0.09939833397043832
3.78859,-0.2290,0.1679,0.0534,0.100668,0.000488,0.10066756657747196
3.791099,-0.2214,0.1603,0.0458,0.099125,-0.008789,0.09912457791794087
3.793608,-0.2443,0.1450,0.0458,0.100493,-0.005371,0.10049335818042814
3.796117,-0.2137,0.1450,0.0611,0.100095,-0.009521,0.10009516755861365
3.798626,-0.2366,0.1756,0.0382,0.099050,-0.011230,0.09904991717635066
3.801135,-0.1985,0.1527,0.0534,0.098925,-0.009277,0.09892548260703364
3.803644,-0.2214,0.1450,0.0382,0.099871,-0.003906,0.09987118533384301
3.806153,-0.2214,0.1603,0.0611,0.099747,-0.008057,0.099746750764526
3.808662,-0.2214,0.1832,0.0458,0.099050,-0.007080,0.09904991717635066
3.811171,-0.2214,0.1603,0.0763,0.099573,-0.004395,0.09957254236748216
3.81368,-0.1985,0.1679,0.0840,0.099971,-0.014893,0.09997073298929664
3.816189,-0.2366,0.1298,0.0305,0.097980,-0.017822,0.09797977988022426
3.818698,-0.2290,0.1450,0.0382,0.098826,-0.012695,0.09882593495158001
3.821207,-0.2290,0.1221,0.0458,0.100319,-0.008789,0.1003191497833843
3.823716,-0.2290,0.1679,0.0305,0.099647,-0.014404,0.09964720310907237
3.826225,-0.2214,0.1527,0.0534,0.099349,-0.010986,0.09934856014271151
3.828734,-0.2137,0.1832,0.0611,0.099025,-0.005615,0.09902503026248725
3.831243,-0.2290,0.1450,0.0687,0.098602,-0.013916,0.09860195272680937
3.833752,-0.2443,0.1527,0.0229,0.099523,-0.007568,0.09952276853975535
3.836261,-0.2137,0.1679,0.0458,0.098801,-0.007080,0.09880104803771661
3.83877,-0.2214,0.1374,0.0305,0.099747,-0.013428,0.099746750764526
3.841279,-0.2366,0.1450,0.0382,0.099100,-0.007324,0.09909969100407746
3.843788,-0.2290,0.1603,0.0305,0.097308,-0.010254,0.09730783320591233
3.846297,-0.2443,0.1450,0.0534,0.099398,-0.008789,0.09939833397043832
3.848806,-0.2214,0.1603,0.0611,0.099896,-0.008301,0.09989607224770641
3.851315,-0.2214,0.1603,0.0382,0.098303,-0.007324,0.09830330976044852
3.853824,-0.2290,0.1527,0.0382,0.099871,-0.007568,0.09987118533384301
3.856333,-0.1985,0.1221,0.0382,0.099149,-0.012695,0.09914946483180427
3.858842,-0.2290,0.1603,0.0534,0.101514,-0.010498,0.10151372164882771
3.861351,-0.2061,0.1756,0.0229,0.098328,-0.010254,0.09832819667431192
3.86386,-0.2519,0.1527,0.0687,0.101713,-0.005615,0.10171281695973496
3.866369,-0.2366,0.1298,0.0458,0.100294,-0.009277,0.1002942628695209
3.868878,-0.2061,0.1527,0.0382,0.099523,-0.009766,0.09952276853975535
3.871387,-0.2366,0.1374,0.0611,0.099871,-0.007568,0.09987118533384301
3.873896,-0.2214,0.1527,0.0534,0.099398,-0.011719,0.09939833397043832
3.876405,-0.2290,0.1527,0.0534,0.101887,-0.004883,0.1018870253567788
3.878914,-0.2290,0.1679,0.0305,0.099448,-0.010742,0.09944810779816514
3.881423,-0.2290,0.1756,0.0458,0.099523,-0.011475,0.09952276853975535
3.883932,-0.2366,0.1756,0.0687,0.098901,-0.001465,0.09890059569317022
3.886441,-0.2290,0.1374,0.0229,0.099125,-0.014160,0.09912457791794087
3.88895,-0.2290,0.1450,0.0229,0.099199,-0.006836,0.09919923865953109
3.891459,-0.2290,0.1679,0.0611,0.098702,-0.006836,0.098701500382263
3.893968,-0.2290,0.1221,0.0534,0.100220,-0.013184,0.10021960212793068
3.896477,-0.1985,0.1527,0.0458,0.098303,-0.009521,0.09830330976044852
3.898986,-0.2214,0.1450,0.0687,0.098478,-0.011475,0.09847751815749235
3.901495,-0.2137,0.1603,0.0382,0.099448,-0.008789,0.09944810779816514
3.904004,-0.2366,0.1832,0.0534,0.100170,-0.008545,0.10016982830020386
3.906513,-0.2061,0.1527,0.0611,0.099274,-0.012207,0.0992738994011213
3.909022,-0.2214,0.1527,0.0382,0.099797,-0.009766,0.0997965245922528
3.911531,-0.2290,0.1756,0.0382,0.100070,-0.013916,0.10007028064475025
3.91404,-0.2137,0.1450,0.0382,0.098826,-0.006836,0.09882593495158001
3.916549,-0.2061,0.1527,0.0382,0.099548,-0.010986,0.09954765545361875
3.919058,-0.2290,0.1756,0.0458,0.099797,-0.012207,0.0997965245922528
3.921567,-0.2214,0.1450,0.0687,0.098925,-0.010986,0.09892548260703364
3.924076,-0.2290,0.1298,0.0458,0.099722,-0.011230,0.09972186385066259
3.926585,-0.2214,0.1527,0.0305,0.099772,-0.002686,0.0997716376783894
3.929094,-0.2366,0.1603,0.0458,0.099075,-0.003906,0.09907480409021406
3.931603,-0.2290,0.1603,0.0611,0.099050,-0.007324,0.09904991717635066
3.934112,-0.2290,0.1679,0.0687,0.099946,-0.010986,0.09994584607543322
3.936621,-0.2137,0.1679,0.0611,0.099946,-0.001709,0.09994584607543322
3.93913,-0.2366,0.1679,0.0534,0.099025,-0.007324,0.09902503026248725
3.941639,-0.2214,0.1603,0.0458,0.099722,-0.008545,0.09972186385066259
3.944148,-0.2214,0.1374,0.0534,0.098527,-0.009033,0.09852729198521916
3.946657,-0.2061,0.1527,0.0458,0.100941,-0.010742,0.10094132262996941
3.949166,-0.2137,0.1603,0.0611,0.099373,-0.010254,0.09937344705657492
3.951675,-0.2137,0.1450,0.0534,0.099622,-0.009277,0.09962231619520896
3.954184,-0.2061,0.1527,0.0382,0.098826,-0.001709,0.09882593495158001
3.956693,-0.2443,0.1756,0.0458,0.098677,-0.010742,0.0986766134683996
3.959202,-0.2137,0.1756,0.0534,0.099075,-0.010254,0.09907480409021406
3.961711,-0.2290,0.1679,0.0611,0.099299,-0.012207,0.0992987863149847
3.96422,-0.2443,0.1679,0.0382,0.098975,-0.004639,0.09897525643476045
3.966729,-0.1985,0.1756,0.0534,0.099921,-0.009033,0.09992095916156982
3.969238,-0.2290,0.1450,0.0763,0.099423,-0.010254,0.09942322088430172
3.971747,-0.2137,0.1450,0.0763,0.099398,-0.009521,0.09939833397043832
3.974256,-0.2214,0.1298,0.0687,0.099747,-0.010498,0.099746750764526
3.976765,-0.2366,0.1527,0.0611,0.099946,-0.004883,0.09994584607543322
3.979274,-0.2214,0.1603,0.0534,0.099473,-0.015625,0.09947299471202854
3.981783,-0.2290,0.1756,0.0611,0.101066,-0.005127,0.10106575719928644
3.984292,-0.2137,0.1374,0.0611,0.099523,-0.001709,0.09952276853975535
3.986801,-0.2366,0.1450,0.0534,0.099473,-0.009033,0.09947299471202854
3.98931,-0.2214,0.1756,0.0611,0.100095,-0.011963,0.10009516755861365
3.991819,-0.2061,0.1679,0.0458,0.100195,-0.011475,0.10019471521406727
3.994328,-0.2137,0.1832,0.0534,0.099473,-0.011230,0.09947299471202854
3.996837,-0.2366,0.1374,0.0305,0.099946,-0.011475,0.09994584607543322
3.999346,-0.2290,0.1603,0.0611,0.099498,-0.010986,0.09949788162589195
4.001855,-0.2061,0.1679,0.0534,0.099946,-0.010498,0.09994584607543322
4.004364,-0.2290,0.1374,0.0305,0.099548,-0.005615,0.09954765545361875
4.006873,-0.2214,0.1756,0.0382,0.100070,-0.001709,0.10007028064475025
4.009382,-0.2366,0.1450,0.0458,0.099324,-0.006348,0.09932367322884811
4.011891,-0.2290,0.1985,0.0611,0.099622,-0.007324,0.09962231619520896
4.0144,-0.2137,0.1985,0.0458,0.098079,-0.003418,0.09807932753567787
4.016909,-0.2137,0.1221,0.0305,0.101638,-0.002686,0.10163815621814475
4.019418,-0.2366,0.1527,0.0534,0.099747,-0.013428,0.099746750764526
4.021927,-0.2290,0.1527,0.0458,0.097880,-0.008545,0.09788023222477064
4.024436,-0.2214,0.1450,0.0458,0.099672,-0.012695,0.09967209002293577
4.026945,-0.2137,0.1298,0.0611,0.101240,-0.011475,0.10123996559633026
4.029454,-0.2443,0.1908,0.0382,0.097930,-0.010742,0.09793000605249745
4.031963,-0.2214,0.1679,0.0534,0.099772,-0.008545,0.0997716376783894
4.034472,-0.2290,0.1374,0.0534,0.099797,-0.013916,0.0997965245922528
4.036981,-0.2366,0.1756,0.0382,0.098975,-0.010254,0.09897525643476045
4.03949,-0.2214,0.1603,0.0763,0.099548,-0.009766,0.09954765545361875
4.041999,-0.2366,0.1679,0.0687,0.100021,-0.007812,0.10002050681702344
4.044508,-0.2214,0.1374,0.0534,0.099821,-0.011475,0.0998214115061162
4.047017,-0.2214,0.1298,0.0611,0.099125,-0.005127,0.09912457791794087
4.049526,-0.2214,0.1298,0.0305,0.100344,-0.012451,0.1003440366972477
4.052035,-0.1985,0.1450,0.0229,0.100493,-0.008545,0.10049335818042814
4.054544,-0.2214,0.1985,0.0534,0.100145,-0.009033,0.10014494138634046
4.057053,-0.2519,0.1832,0.0458,0.099149,-0.008057,0.09914946483180427
4.059562,-0.1985,0.1527,0.0534,0.098851,-0.005859,0.09885082186544342
4.062071,-0.2061,0.1450,0.0305,0.098826,-0.007080,0.09882593495158001
4.06458,-0.2214,0.1603,0.0382,0.099896,-0.006348,0.09989607224770641
4.067089,-0.2214,0.1679,0.0382,0.098478,-0.000244,0.09847751815749235
4.069598,-0.2061,0.1374,0.0534,0.099174,-0.007812,0.09917435174566767
4.072107,-0.2366,0.1527,0.0534,0.099299,-0.009521,0.0992987863149847
4.074616,-0.2290,0.1603,0.0687,0.099647,-0.011475,0.09964720310907237
4.077125,-0.2290,0.1603,0.0458,0.099199,-0.010010,0.09919923865953109
4.079634,-0.2214,0.1679,0.0229,0.099597,-0.010010,0.09959742928134556
4.082143,-0.2214,0.1679,0.0687,0.099324,-0.003174,0.09932367322884811
4.084652,-0.2290,0.1603,0.0458,0.097432,-0.010986,0.09743226777522936
4.087161,-0.2214,0.1527,0.0611,0.100145,-0.010498,0.10014494138634046
4.08967,-0.2061,0.1527,0.0458,0.100344,-0.012939,0.1003440366972477
4.092179,-0.2214,0.1527,0.0611,0.099871,-0.007324,0.09987118533384301
4.094688,-0.2137,0.1832,0.0611,0.100145,-0.014893,0.10014494138634046
4.097197,-0.2137,0.1298,0.0458,0.100120,-0.017578,0.10012005447247706
4.099706,-0.2290,0.1603,0.0458,0.098826,-0.008789,0.09882593495158001
4.102215,-0.1985,0.1527,0.0763,0.099299,-0.006592,0.0992987863149847
4.104724,-0.2366,0.1832,0.0382,0.099199,-0.004150,0.09919923865953109
4.107233,-0.2290,0.1603,0.0534,0.099224,-0.003174,0.0992241255733945
4.109742,-0.1908,0.1527,0.0458,0.099821,-0.009521,0.0998214115061162
4.112251,-0.2137,0.1679,0.0382,0.100269,-0.003662,0.10026937595565749
4.11476,-0.2443,0.2366,0.0687,0.097382,-0.010010,0.09738249394750255
4.117269,-0.2290,0.1832,0.0763,0.099274,-0.006836,0.0992738994011213
4.119778,-0.2214,0.1298,0.0687,0.099846,-0.004883,0.0998462984199796
4.122287,-0.2366,0.1908,0.0458,0.099622,-0.010498,0.09962231619520896
4.124796,-0.2214,0.1603,0.0611,0.099125,-0.006104,0.09912457791794087
4.127305,-0.2214,0.1450,0.0305,0.098950,-0.020264,0.09895036952089704
4.129814,-0.2290,0.1603,0.0534,0.098602,-0.014648,0.09860195272680937
4.132323,-0.2061,0.1450,0.0611,0.099647,-0.015137,0.09964720310907237
4.134832,-0.2366,0.1374,0.0382,0.099373,-0.012207,0.09937344705657492
4.137341,-0.2061,0.1603,0.0382,0.100269,-0.010498,0.10026937595565749
4.13985,-0.2214,0.1450,0.0611,0.099349,-0.006592,0.09934856014271151
4.142359,-0.2290,0.1603,0.0611,0.098826,-0.010742,0.09882593495158001
4.144868,-0.2137,0.1603,0.0382,0.099100,-0.007812,0.09909969100407746
4.147377,-0.2290,0.1527,0.0534,0.098378,-0.011475,0.09837797050203873
4.149886,-0.2290,0.1756,0.0458,0.098801,-0.007812,0.09880104803771661
4.152395,-0.2214,0.1374,0.0611,0.099871,-0.008545,0.09987118533384301
4.154904,-0.2061,0.1527,0.0458,0.099373,-0.008789,0.09937344705657492
4.157413,-0.2672,0.1908,0.0687,0.098552,-0.011719,0.09855217889908256
4.159922,-0.2214,0.1603,0.0611,0.099797,-0.004883,0.0997965245922528
4.162431,-0.2443,0.1985,0.0458,0.099821,-0.010254,0.0998214115061162
4.16494,-0.2290,0.1756,0.0534,0.100269,-0.005859,0.10026937595565749
4.167449,-0.2290,0.1832,0.0687,0.099125,-0.005859,0.09912457791794087
4.169958,-0.2137,0.1603,0.0534,0.099597,-0.008301,0.09959742928134556
4.172467,-0.2061,0.1603,0.0305,0.099946,-0.011230,0.09994584607543322
4.174976,-0.2214,0.1450,0.0534,0.099100,-0.013184,0.09909969100407746
4.177485,-0.2137,0.1374,0.0458,0.099672,-0.001709,0.09967209002293577
4.179994,-0.2137,0.1679,0.0611,0.099050,-0.009766,0.09904991717635066
4.182503,-0.2290,0.1756,0.0458,0.100767,-0.007324,0.10076711423292559
4.185012,-0.2290,0.1603,0.0382,0.097358,-0.006348,0.09735760703363913
4.187521,-0.2290,0.1603,0.0229,0.100170,-0.008545,0.10016982830020386
4.19003,-0.2214,0.1679,0.0611,0.097880,-0.012695,0.09788023222477064
4.192539,-0.2061,0.1756,0.0687,0.099523,-0.009033,0.09952276853975535
4.195048,-0.2519,0.1679,0.0229,0.098278,-0.009033,0.09827842284658511
4.197557,-0.2443,0.1679,0.0153,0.099747,-0.013184,0.099746750764526
4.200066,-0.2290,0.1756,0.0458,0.099174,-0.007324,0.09917435174566767
4.202575,-0.2214,0.1527,0.0229,0.099473,-0.010254,0.09947299471202854
4.205084,-0.2214,0.1679,0.0382,0.099025,-0.001709,0.09902503026248725
4.207593,-0.2290,0.1527,0.0534,0.099324,-0.005859,0.09932367322884811
4.210102,-0.2366,0.1679,0.0305,0.099573,-0.009277,0.09957254236748216
4.212611,-0.2061,0.1374,0.0611,0.100045,-0.008545,0.10004539373088685
4.21512,-0.2290,0.1603,0.0153,0.099000,-0.018799,0.09900014334862385
4.217629,-0.2290,0.1679,0.0382,0.098826,-0.015625,0.09882593495158001
4.220138,-0.2061,0.1298,0.0458,0.100568,-0.014648,0.10056801892201835
4.222647,-0.2137,0.1450,0.0305,0.099174,-0.009766,0.09917435174566767
4.225156,-0.2061,0.0992,0.0229,0.099224,-0.007812,0.0992241255733945
4.227665,-0.2137,0.1603,0.0305,0.100892,-0.009521,0.1008915488022426
4.230174,-0.2290,0.1298,0.0763,0.099647,-0.006104,0.09964720310907237
4.232683,-0.2443,0.1679,0.0382,0.100070,-0.005859,0.10007028064475025
4.235192,-0.2214,0.1679,0.0611,0.098652,-0.007568,0.09865172655453618
4.237701,-0.2290,0.1603,0.0611,0.100021,-0.006104,0.10002050681702344
4.24021,-0.2366,0.1603,0.0611,0.099274,-0.009521,0.0992738994011213
4.242719,-0.2290,0.1527,0.0458,0.098901,-0.010742,0.09890059569317022
4.245228,-0.2061,0.1221,0.0382,0.099647,-0.006592,0.09964720310907237
4.247737,-0.2366,0.1527,0.0611,0.099647,-0.003662,0.09964720310907237
4.250246,-0.2366,0.1374,0.0534,0.100294,-0.006592,0.1002942628695209
4.252755,-0.2290,0.1679,0.0458,0.099249,-0.005615,0.0992490124872579
4.255264,-0.2214,0.1679,0.0305,0.099050,-0.016602,0.09904991717635066
